# Total Kinetic Energy: 14595.590825677327 J
# Total Potential Energy: -28088.146013468486 J
# Total Energy: -13492.555187791158 J
# mass x y z vx vy vz ax ay az
1.000000000000000021e-02 1.045300027640959417e+00 7.706400819401812985e-01 8.346658700517528562e-01 2.032465980440703035e-01 6.673743704616351691e-01 -7.462717904566260607e-01 0.000000000000000000e+00 0.000000000000000000e+00 0.000000000000000000e+00
1.000000000000000021e-02 9.347303627490741729e-01 2.082678376831223199e-01 1.603300026817102930e+00 4.861520305468159386e-01 -1.590138362168629804e+00 -7.864160912518941560e-01 0.000000000000000000e+00 0.000000000000000000e+00 0.000000000000000000e+00
1.000000000000000021e-02 7.285331113214278398e-01 3.916314141425067397e-01 -3.652902676764820389e-01 3.616361296328246544e-02 7.378480468314773111e-01 -7.915744873999266962e-02 0.000000000000000000e+00 0.000000000000000000e+00 0.000000000000000000e+00
1.000000000000000021e-02 -2.335992428219475781e-01 -1.010629898564554097e+00 1.682351907189838736e+00 7.446699042288458248e-01 5.188213378595303571e-02 -5.847304136168766098e-01 0.000000000000000000e+00 0.000000000000000000e+00 0.000000000000000000e+00
1.000000000000000021e-02 -7.411939300579784007e-01 4.772038260100269214e-01 7.706911671795223240e-02 9.599631287322424322e-01 -4.069634284230337351e-01 2.626145717830842274e-01 0.000000000000000000e+00 0.000000000000000000e+00 0.000000000000000000e+00
1.000000000000000021e-02 -3.751136764624766196e-01 2.248165289161546676e-02 1.202419274835794472e+00 2.332805090765867062e-01 -3.420793933711908652e-01 -8.117597268769228824e-01 0.000000000000000000e+00 0.000000000000000000e+00 0.000000000000000000e+00
1.000000000000000021e-02 -3.054655170107916651e-01 8.725339504458911044e-01 4.374531908485302933e-01 -9.477225220867407929e-01 -3.930927148321198827e-01 -2.660534871809051349e+00 0.000000000000000000e+00 0.000000000000000000e+00 0.000000000000000000e+00
1.000000000000000021e-02 8.454357156022279662e-01 9.729567971747175859e-02 -6.015637627080026029e-01 6.693031465073260300e-01 -4.879043778253244201e-01 -4.321300821342172749e-01 0.000000000000000000e+00 0.000000000000000000e+00 0.000000000000000000e+00
1.000000000000000021e-02 8.212098567071902666e-01 -6.172341755208540226e-01 1.488402206109575188e+00 -1.044505775096122191e+00 5.110901575653366002e-01 6.441918356737506013e-01 0.000000000000000000e+00 0.000000000000000000e+00 0.000000000000000000e+00
1.000000000000000021e-02 -5.548950556309539817e-01 1.241149499026135417e-01 -5.648438967327490401e-01 -5.912353789087079758e-02 -1.499151585186816182e-01 -2.448333137414388627e+00 0.000000000000000000e+00 0.000000000000000000e+00 0.000000000000000000e+00
1.000000000000000021e-02 -1.290686856241989311e+00 -1.359000015397358263e+00 -6.250848595162795951e-02 4.148793715680624272e-01 6.130925607517825338e-01 -9.424764102118175779e-02 0.000000000000000000e+00 0.000000000000000000e+00 0.000000000000000000e+00
1.000000000000000021e-02 -4.735123634780462609e-01 4.880730157532676139e-01 -5.253165070988319307e-01 1.574596972434995967e+00 -2.626457840103103014e-01 7.287610007497798970e-01 0.000000000000000000e+00 0.000000000000000000e+00 0.000000000000000000e+00
1.000000000000000021e-02 8.016253727724467204e-01 2.466173337746975780e-01 -2.129652069002028636e+00 -2.011190768408675777e-02 1.344509333691940312e-01 2.106195076477094918e+00 0.000000000000000000e+00 0.000000000000000000e+00 0.000000000000000000e+00
1.000000000000000021e-02 4.197830056652619435e-01 -6.680984071598835561e-01 -4.109178459142560635e-01 -1.146247741009596588e+00 -1.829577609251499259e+00 5.382143055606589677e-01 0.000000000000000000e+00 0.000000000000000000e+00 0.000000000000000000e+00
1.000000000000000021e-02 -1.140983659047689169e+00 -7.900973322123808762e-01 4.903028019302830276e-01 -1.194386319597944057e+00 -2.276750168035774902e-01 -1.512815982721989139e+00 0.000000000000000000e+00 0.000000000000000000e+00 0.000000000000000000e+00
1.000000000000000021e-02 -9.149741246206776202e-01 -1.332202821533329917e+00 9.807551882710658919e-01 -1.483248484985902449e+00 -6.758780226820434445e-01 -8.501590252963671102e-01 0.000000000000000000e+00 0.000000000000000000e+00 0.000000000000000000e+00
1.000000000000000021e-02 6.598507961414752376e-01 -5.109652548068180922e-01 2.899890080347462540e-01 7.647204668295928265e-01 -1.110398786977678132e+00 4.346289888762144282e-01 0.000000000000000000e+00 0.000000000000000000e+00 0.000000000000000000e+00
1.000000000000000021e-02 6.827188952332477467e-02 1.307147947544602840e+00 -4.900756506902147480e-01 -6.665976220811755670e-01 -1.676679725200729498e+00 -7.629545711971070787e-01 0.000000000000000000e+00 0.000000000000000000e+00 0.000000000000000000e+00
1.000000000000000021e-02 -7.712999009664686101e-01 -9.526989680934028204e-01 -1.140409004211679012e+00 4.292026254063911750e-02 8.623485170532708688e-01 1.496447630213918467e-01 0.000000000000000000e+00 0.000000000000000000e+00 0.000000000000000000e+00
1.000000000000000021e-02 -1.620284735878068094e-01 -1.132963586881350349e+00 2.271130903585625860e-01 -1.080304739903050537e+00 -9.623753788207874971e-01 -7.072196507027308510e-01 0.000000000000000000e+00 0.000000000000000000e+00 0.000000000000000000e+00
1.000000000000000021e-02 4.577935018128735378e-01 5.524237211311190388e-01 -5.485620416142305000e-01 1.143837881599917727e+00 1.133003062439932096e+00 -3.455656071350228231e-01 0.000000000000000000e+00 0.000000000000000000e+00 0.000000000000000000e+00
1.000000000000000021e-02 -7.392552626080955980e-02 1.015696143709846178e+00 1.816164333583222046e+00 -1.279495834244462671e+00 3.757883605903752366e-01 5.897314160805349204e-01 0.000000000000000000e+00 0.000000000000000000e+00 0.000000000000000000e+00
1.000000000000000021e-02 -1.873904512658752353e+00 6.434928474976189805e-02 1.238513352249651867e+00 2.919814863733483090e-01 -6.218882486099275297e-01 1.290525810498835746e+00 0.000000000000000000e+00 0.000000000000000000e+00 0.000000000000000000e+00
1.000000000000000021e-02 2.244468986241316966e-01 4.674124125698082555e-01 -8.280968976075574473e-01 9.870966519223749180e-02 -1.149252601273390351e+00 -4.749982843979151381e-01 0.000000000000000000e+00 0.000000000000000000e+00 0.000000000000000000e+00
1.000000000000000021e-02 1.164598270748911757e+00 -2.087751619814831039e-01 -1.805882972923981145e-01 -4.892450258864645685e-01 -1.384277213288385600e+00 -2.367518767167860194e-01 0.000000000000000000e+00 0.000000000000000000e+00 0.000000000000000000e+00
1.000000000000000021e-02 -1.501282428282626258e+00 7.979504436502650178e-01 1.068857017726922987e+00 -9.835456071598360772e-01 -1.768508891027399388e+00 -3.221120003962638645e-01 0.000000000000000000e+00 0.000000000000000000e+00 0.000000000000000000e+00
1.000000000000000021e-02 -1.651062075445052901e+00 -1.880878971883250539e-01 -8.656067123659817453e-01 -1.056255296600352667e+00 2.205055002461090652e+00 -4.317013138460733257e-02 0.000000000000000000e+00 0.000000000000000000e+00 0.000000000000000000e+00
1.000000000000000021e-02 -2.954043385308613989e-01 5.674670561863834894e-01 1.657405206779672402e-01 9.012066465689378969e-01 -1.451186118552588056e+00 -2.900881848813097186e+00 0.000000000000000000e+00 0.000000000000000000e+00 0.000000000000000000e+00
1.000000000000000021e-02 5.354502792623300200e-01 -3.544408305056059305e-01 -1.402528409371131435e+00 5.082622713311163443e-01 3.886449405500824184e-01 -6.105907446378414788e-02 0.000000000000000000e+00 0.000000000000000000e+00 0.000000000000000000e+00
1.000000000000000021e-02 -2.056621294160965174e+00 -1.211028926707808512e-01 -3.354583793421609950e-01 3.550426076810562215e-01 2.978325465410900375e-01 -4.884781943226273460e-01 0.000000000000000000e+00 0.000000000000000000e+00 0.000000000000000000e+00
1.000000000000000021e-02 -1.291551338322845188e+00 -1.024846111279576366e+00 9.361566999080457308e-01 3.316999011499193739e-01 1.451545389946469422e+00 -5.705346581062133993e-01 0.000000000000000000e+00 0.000000000000000000e+00 0.000000000000000000e+00
1.000000000000000021e-02 2.187927343673667036e+00 1.853293823139191832e-01 6.901237745563820747e-01 7.439848162616314875e-01 8.097972895175975516e-01 4.588153765940845563e-01 0.000000000000000000e+00 0.000000000000000000e+00 0.000000000000000000e+00
1.000000000000000021e-02 -1.909791884541406803e+00 -1.781838669132661812e-01 -1.399661194939707531e+00 -1.975811322446494600e+00 -1.180905604246294649e+00 1.484492339223790092e+00 0.000000000000000000e+00 0.000000000000000000e+00 0.000000000000000000e+00
1.000000000000000021e-02 -3.190195884571828677e-01 4.096869306627354268e-02 -6.843620322379040388e-01 -9.071194999303470174e-01 -6.278821690198492789e-01 -1.790991790867684230e+00 0.000000000000000000e+00 0.000000000000000000e+00 0.000000000000000000e+00
1.000000000000000021e-02 -2.679931499015252364e-02 -3.826705542449822528e-01 -1.898423419368526766e+00 2.939909028069616626e-01 7.539103540178929697e-01 -1.009958254236534625e+00 0.000000000000000000e+00 0.000000000000000000e+00 0.000000000000000000e+00
1.000000000000000021e-02 6.859172850561113810e-01 7.021032410124957712e-01 -7.493567267587882830e-01 7.219125265183614637e-01 1.789420285123528853e-01 -1.760231384716793787e-02 0.000000000000000000e+00 0.000000000000000000e+00 0.000000000000000000e+00
1.000000000000000021e-02 1.642270102006438526e+00 4.231239731990835695e-01 1.508240971425992560e+00 5.353351106451298413e-01 -9.232725650881317137e-01 2.470879762479361308e-01 0.000000000000000000e+00 0.000000000000000000e+00 0.000000000000000000e+00
1.000000000000000021e-02 8.138793224621355682e-01 -2.901308122370868312e-02 1.157551408034328988e+00 1.518477391921898789e+00 3.467178697006773058e-01 1.176694897939468687e+00 0.000000000000000000e+00 0.000000000000000000e+00 0.000000000000000000e+00
1.000000000000000021e-02 -1.274030314792647944e+00 -2.080142625921598334e-02 1.843974860516060521e-01 4.381782253471513955e-01 7.900881961429164768e-01 -1.137072481215840369e+00 0.000000000000000000e+00 0.000000000000000000e+00 0.000000000000000000e+00
1.000000000000000021e-02 -3.870959830358999820e-01 -1.750538968978545107e+00 -1.547850303061183985e-01 -4.805921156986510401e-02 1.225382173566433197e+00 -5.460452797916068857e-01 0.000000000000000000e+00 0.000000000000000000e+00 0.000000000000000000e+00
1.000000000000000021e-02 -2.375712178907607719e-01 3.769662328774280313e-01 -8.843377438950265068e-01 -5.743624216759947165e-01 -1.481218004930210386e-01 -7.688858613250170171e-01 0.000000000000000000e+00 0.000000000000000000e+00 0.000000000000000000e+00
1.000000000000000021e-02 -7.024790875384370192e-01 4.937759038382333876e-01 -2.530773717267453260e-01 -6.903197576916644262e-01 -1.325056146740871965e-01 -4.646647468656086022e-01 0.000000000000000000e+00 0.000000000000000000e+00 0.000000000000000000e+00
1.000000000000000021e-02 1.877528471225138551e+00 -7.095010196251603229e-01 -2.634295404453709022e+00 1.540142067060220388e+00 3.587755139647691438e-01 -2.391167835458948843e-01 0.000000000000000000e+00 0.000000000000000000e+00 0.000000000000000000e+00
1.000000000000000021e-02 -4.217245988242304122e-01 1.834371265727000322e-01 6.993977111545487402e-01 -1.288774250310930736e+00 -2.893637333714731419e-01 4.876000810851228162e-01 0.000000000000000000e+00 0.000000000000000000e+00 0.000000000000000000e+00
1.000000000000000021e-02 1.973018817404218028e+00 1.324763995953633922e+00 -7.020047333876738849e-01 7.425821126970697517e-01 -2.442391964427906181e+00 -1.280907755897234823e+00 0.000000000000000000e+00 0.000000000000000000e+00 0.000000000000000000e+00
1.000000000000000021e-02 6.865596828390186923e-01 -1.000578755932334252e+00 -1.913883230025815507e+00 4.935691694455194289e-01 -1.805121604206162966e-01 3.091390248353885206e-01 0.000000000000000000e+00 0.000000000000000000e+00 0.000000000000000000e+00
1.000000000000000021e-02 7.171048067356448064e-01 -1.303691153546221004e+00 -1.524075278628358898e+00 -6.578036130078612764e-01 -4.471389883851636382e-01 1.430241562462763349e+00 0.000000000000000000e+00 0.000000000000000000e+00 0.000000000000000000e+00
1.000000000000000021e-02 5.517316062982874358e-01 1.379036012018903246e-01 3.500085219501531397e-01 -7.635743385322959487e-01 1.204437655086262549e+00 3.083226312776682576e+00 0.000000000000000000e+00 0.000000000000000000e+00 0.000000000000000000e+00
1.000000000000000021e-02 -1.169586799301535862e+00 4.941036237405504322e-02 1.929774526961306025e+00 -8.021649310545692080e-01 -2.708211726771344585e-01 5.220167870505887375e-01 0.000000000000000000e+00 0.000000000000000000e+00 0.000000000000000000e+00
1.000000000000000021e-02 -1.700034861780207684e+00 -1.723030708026552338e+00 -9.600936301879466894e-01 1.831403530374567656e-01 1.426566596102291085e-01 -9.238042841550444528e-01 0.000000000000000000e+00 0.000000000000000000e+00 0.000000000000000000e+00
1.000000000000000021e-02 4.979426272374973261e-02 2.834213077226034549e+00 1.077596052100468826e+00 -1.432478430282964732e+00 1.479653205799805749e-01 -3.586055304105714159e-01 0.000000000000000000e+00 0.000000000000000000e+00 0.000000000000000000e+00
1.000000000000000021e-02 7.177242913718991923e-01 -1.215235122088545561e+00 -3.847460331217851803e-01 -1.385820728073180463e+00 -8.251368514978063562e-01 -1.869213499362558095e-01 0.000000000000000000e+00 0.000000000000000000e+00 0.000000000000000000e+00
1.000000000000000021e-02 -2.178750969368266899e-01 2.461532262747652577e+00 -9.057159307642641544e-01 5.659980449159144333e-01 -1.182433630225934396e+00 2.059970045705249997e-01 0.000000000000000000e+00 0.000000000000000000e+00 0.000000000000000000e+00
1.000000000000000021e-02 1.316006139392484453e+00 3.709858576209142944e-01 -2.174236773535986433e+00 1.385966778626797624e-01 3.568866032565556901e-01 -8.700379030980732731e-01 0.000000000000000000e+00 0.000000000000000000e+00 0.000000000000000000e+00
1.000000000000000021e-02 -1.003924869877595105e+00 2.621104479535659171e-01 -5.588173297340636170e-01 -7.435061580600178521e-01 -3.422802319029324414e-01 -1.910260060924481307e+00 0.000000000000000000e+00 0.000000000000000000e+00 0.000000000000000000e+00
1.000000000000000021e-02 6.691828074095955703e-01 1.036407186352239052e+00 -2.215662940159009331e+00 -3.053444761354458525e-01 -3.128203477777118935e-01 6.586412253562744512e-01 0.000000000000000000e+00 0.000000000000000000e+00 0.000000000000000000e+00
1.000000000000000021e-02 -3.679145840417629570e-03 9.414013070069196520e-02 -1.071672137493616228e+00 -1.118271143367084219e+00 -2.956832414813567733e-01 -8.343464548578144457e-01 0.000000000000000000e+00 0.000000000000000000e+00 0.000000000000000000e+00
1.000000000000000021e-02 -3.615329990598459831e-01 -1.819853724049955268e+00 -1.603965289800511895e+00 -2.916077443017597859e-01 9.714644702675045984e-01 8.254393269945506928e-01 0.000000000000000000e+00 0.000000000000000000e+00 0.000000000000000000e+00
1.000000000000000021e-02 -1.592448162752197804e+00 9.891139740028064287e-01 -1.047894271528370336e+00 -2.089667305743073467e+00 6.877149044145707268e-01 -6.168636118324040130e-01 0.000000000000000000e+00 0.000000000000000000e+00 0.000000000000000000e+00
1.000000000000000021e-02 5.044525202608859393e-01 -3.521614863235436044e-01 -2.236853918180081169e-01 1.842051407808577901e+00 -9.220539144159088929e-01 5.318428886130428523e-01 0.000000000000000000e+00 0.000000000000000000e+00 0.000000000000000000e+00
1.000000000000000021e-02 -2.599942393006594354e+00 -4.478925951603501265e-01 2.668884110134532306e-01 -1.185705746129590787e+00 6.832097506352655669e-01 -1.493525673279061383e+00 0.000000000000000000e+00 0.000000000000000000e+00 0.000000000000000000e+00
1.000000000000000021e-02 -1.485196473838858111e+00 -2.190346065577095103e-03 -1.148886723138262261e-01 5.549871540097611744e-01 -1.143001534153059717e+00 4.976821156528659640e-01 0.000000000000000000e+00 0.000000000000000000e+00 0.000000000000000000e+00
1.000000000000000021e-02 8.418837207596518990e-01 4.774062340697818874e-01 -1.293347983685278590e+00 1.775135114259767555e+00 4.873004631544187171e-01 1.429004658120343274e+00 0.000000000000000000e+00 0.000000000000000000e+00 0.000000000000000000e+00
1.000000000000000021e-02 -6.483044282650752832e-01 -7.564010375513195994e-01 -3.396485663779239550e-01 7.449950834850838088e-01 2.375409089071908453e-01 -1.575055408410574120e+00 0.000000000000000000e+00 0.000000000000000000e+00 0.000000000000000000e+00
1.000000000000000021e-02 2.934071291985335117e-03 5.415310985791845777e-01 3.352764398140603563e-01 -8.848195014260099578e-01 1.364707675147494470e+00 -1.556910533083667003e+00 0.000000000000000000e+00 0.000000000000000000e+00 0.000000000000000000e+00
1.000000000000000021e-02 6.237846486997219442e-01 -4.076124132031254399e-02 -4.330176598803091026e-01 -7.856495179988723376e-04 -8.978608014322151387e-01 -4.448889190580527231e-01 0.000000000000000000e+00 0.000000000000000000e+00 0.000000000000000000e+00
1.000000000000000021e-02 -6.250052628018690770e-01 -2.360723981768811375e-01 1.190310647635074881e+00 4.826230911253582279e-01 -4.611525607325346887e-01 1.978680851695195697e+00 0.000000000000000000e+00 0.000000000000000000e+00 0.000000000000000000e+00
1.000000000000000021e-02 5.938748567402074574e-01 1.244359676651210611e+00 -7.423875745123612035e-02 1.064541619028058994e+00 5.402999724571015960e-01 2.067675597282312427e+00 0.000000000000000000e+00 0.000000000000000000e+00 0.000000000000000000e+00
1.000000000000000021e-02 -2.202862492519534754e-02 -1.084898053496976100e+00 6.479529455486798817e-01 -1.158947314888571389e+00 -6.341824549579342385e-01 -3.445101053020874771e-01 0.000000000000000000e+00 0.000000000000000000e+00 0.000000000000000000e+00
1.000000000000000021e-02 5.261772735019770719e-01 1.392993586374987325e-01 9.222407950659254616e-02 -2.980950232036539971e-01 -5.424213665515569271e-01 -8.040393321735297416e-01 0.000000000000000000e+00 0.000000000000000000e+00 0.000000000000000000e+00
1.000000000000000021e-02 7.508344899431896868e-01 8.830046104926804196e-01 -9.794570708519375613e-01 -5.760251454113831659e-01 3.169918813051095241e-01 2.885949491119627619e-01 0.000000000000000000e+00 0.000000000000000000e+00 0.000000000000000000e+00
1.000000000000000021e-02 1.723716332135832641e+00 -7.714897419187179972e-01 6.057961373417747319e-01 9.793527458959357945e-01 -5.009576330403658906e-01 1.098179638250101675e+00 0.000000000000000000e+00 0.000000000000000000e+00 0.000000000000000000e+00
1.000000000000000021e-02 6.074293022653687313e-01 -7.021966923947977612e-01 -1.274805749399262167e+00 7.032598713485789244e-01 -4.097339370655101454e-01 -1.175201065311699766e+00 0.000000000000000000e+00 0.000000000000000000e+00 0.000000000000000000e+00
1.000000000000000021e-02 -1.575732889246761914e+00 -4.152039227054071246e-01 -9.640257164018872782e-01 -5.303130684605853462e-01 -2.760184651401839107e-01 -6.978390043760940298e-01 0.000000000000000000e+00 0.000000000000000000e+00 0.000000000000000000e+00
1.000000000000000021e-02 6.608395694338391468e-01 6.716827368044069047e-02 -3.699690950789173427e-01 -1.768351673025834320e-02 1.396971569836753302e+00 -3.894703251405513544e-01 0.000000000000000000e+00 0.000000000000000000e+00 0.000000000000000000e+00
1.000000000000000021e-02 6.060632489638951848e-01 -1.259963825082163646e+00 1.157996648767390058e+00 -2.113895901059123228e-01 -4.125270313999651606e-01 -5.934104117457088962e-02 0.000000000000000000e+00 0.000000000000000000e+00 0.000000000000000000e+00
1.000000000000000021e-02 1.222620264323807104e+00 -1.530353307900126358e+00 -1.947154557073983439e-01 -6.705967848219288596e-01 7.487748471044721743e-01 -2.634891951073692895e-01 0.000000000000000000e+00 0.000000000000000000e+00 0.000000000000000000e+00
1.000000000000000021e-02 -1.945202324986004816e-02 4.737640053981958532e-01 4.161623843036966752e-01 -8.757887727931318311e-02 -2.154622204222488013e-01 9.396364635902840212e-02 0.000000000000000000e+00 0.000000000000000000e+00 0.000000000000000000e+00
1.000000000000000021e-02 -1.928155338512915484e-01 1.177278693158265943e+00 1.620046673627050307e-02 7.302918754801970280e-01 3.899675293847523760e-01 -3.376718450315365216e-01 0.000000000000000000e+00 0.000000000000000000e+00 0.000000000000000000e+00
1.000000000000000021e-02 -1.026589320853454668e+00 -8.005220905768548612e-01 8.332878010990952822e-01 -6.079013939879355233e-01 1.276494761205842821e+00 1.320947091580134236e+00 0.000000000000000000e+00 0.000000000000000000e+00 0.000000000000000000e+00
1.000000000000000021e-02 -1.273372410588235193e-01 2.826649136383344585e-01 8.791171192724639427e-01 -2.466219272897361425e-01 -2.220107315711783436e-01 -1.010102308003600458e+00 0.000000000000000000e+00 0.000000000000000000e+00 0.000000000000000000e+00
1.000000000000000021e-02 -1.273885130708921065e-01 -1.025945087198847805e+00 3.554304380557367637e-01 1.737341516904295224e-01 2.307637241020221719e+00 4.592548640399820581e-01 0.000000000000000000e+00 0.000000000000000000e+00 0.000000000000000000e+00
1.000000000000000021e-02 1.233155450266578204e-02 -8.011970780976396256e-01 -3.563415052845685937e-01 -8.307024650533091359e-01 -2.406371471837013054e+00 -2.911840693394892043e-01 0.000000000000000000e+00 0.000000000000000000e+00 0.000000000000000000e+00
1.000000000000000021e-02 -3.481681005902336618e-02 2.970017922553280787e-01 -1.442998260002858579e+00 5.549743830431884684e-01 -1.363510236909016626e+00 8.929581865301732257e-01 0.000000000000000000e+00 0.000000000000000000e+00 0.000000000000000000e+00
1.000000000000000021e-02 9.847016632927007018e-01 1.130377648181611461e+00 3.657722869342405758e-01 6.269076747367689773e-02 -1.249348496325759950e+00 6.670996263526004499e-01 0.000000000000000000e+00 0.000000000000000000e+00 0.000000000000000000e+00
1.000000000000000021e-02 -9.089745799651951508e-01 9.430714393225221315e-01 2.210115601208145542e+00 -6.100240432590543493e-01 -3.128667856904190914e-01 7.704506583090656724e-01 0.000000000000000000e+00 0.000000000000000000e+00 0.000000000000000000e+00
1.000000000000000021e-02 1.805220991739013403e+00 -1.466587922150571321e+00 -1.579108809750485176e-01 1.198492602401374230e+00 -6.268815974240882216e-01 3.125032882239879486e-03 0.000000000000000000e+00 0.000000000000000000e+00 0.000000000000000000e+00
1.000000000000000021e-02 -2.963617461689490584e-01 1.882783733150328542e+00 -2.669484095614905739e-01 -1.978029732995878698e+00 4.903203701886333921e-01 -1.020176906575080089e+00 0.000000000000000000e+00 0.000000000000000000e+00 0.000000000000000000e+00
1.000000000000000021e-02 -1.189754313328276192e+00 1.504749448728958772e+00 6.162276983265312091e-02 1.590732333429088818e+00 4.285330811075072077e-01 1.017613735155605825e+00 0.000000000000000000e+00 0.000000000000000000e+00 0.000000000000000000e+00
1.000000000000000021e-02 4.092340839739015412e-01 -2.083111069527329384e+00 -6.388878463674897423e-01 -1.552565352506441766e-02 -1.146793912914483071e+00 1.026103954561703446e+00 0.000000000000000000e+00 0.000000000000000000e+00 0.000000000000000000e+00
1.000000000000000021e-02 1.335757726761284403e-01 -2.735847930295700614e-01 1.049865139463416863e+00 1.530526178326831355e+00 -1.467222024517064627e+00 -1.450453473655826331e+00 0.000000000000000000e+00 0.000000000000000000e+00 0.000000000000000000e+00
1.000000000000000021e-02 -1.062708853690725874e+00 -1.999935941311550280e-01 -3.162892452841556956e-01 2.299517363201420139e-01 -7.399239767048974015e-01 -3.355116425572359784e-01 0.000000000000000000e+00 0.000000000000000000e+00 0.000000000000000000e+00
1.000000000000000021e-02 1.388262251557706994e+00 1.195141158164137352e+00 6.125350434449740034e-01 -5.870913352000691754e-01 2.000099558613409823e+00 2.719440673618334969e+00 0.000000000000000000e+00 0.000000000000000000e+00 0.000000000000000000e+00
1.000000000000000021e-02 5.985528130255609591e-01 7.635880351307497982e-01 -1.674672126249937776e+00 -4.801140608578453040e-01 2.774746742419612056e-01 1.510431586133496928e+00 0.000000000000000000e+00 0.000000000000000000e+00 0.000000000000000000e+00
1.000000000000000021e-02 -1.707608394768157511e+00 -6.429617472995323713e-01 -1.029827606563169073e+00 -2.636637654399057173e-01 4.232533025229874846e-01 2.235436354238146794e+00 0.000000000000000000e+00 0.000000000000000000e+00 0.000000000000000000e+00
1.000000000000000021e-02 -1.762517611653609262e-01 3.729990630858552314e-01 1.350079137521804418e+00 -2.173677410111290453e-01 -6.927424013356227039e-01 4.285984920066711612e-01 0.000000000000000000e+00 0.000000000000000000e+00 0.000000000000000000e+00
1.000000000000000021e-02 4.306963927936489078e-01 3.514684215798237199e-01 -1.676619270953046525e+00 9.518257321952795502e-01 7.518610304496714525e-01 8.640612817635445753e-01 0.000000000000000000e+00 0.000000000000000000e+00 0.000000000000000000e+00
1.000000000000000021e-02 -1.784598059765164058e+00 8.782466100773598239e-01 -5.183099205738346260e-01 2.716893814191683187e-01 -4.618579118491999425e-01 5.998450986185793754e-01 0.000000000000000000e+00 0.000000000000000000e+00 0.000000000000000000e+00
1.000000000000000021e-02 -3.048970343353497592e-01 1.902762150591457146e-01 3.560669757888321740e-01 -1.717554732352388092e+00 7.506353134293564100e-01 -4.369388417980616390e-01 0.000000000000000000e+00 0.000000000000000000e+00 0.000000000000000000e+00
1.000000000000000021e-02 -4.672036840456554319e-01 -1.159395480856346916e+00 1.703717397926147736e+00 4.768108265334500273e-01 -9.823064655168425308e-01 -5.657116442336644901e-01 0.000000000000000000e+00 0.000000000000000000e+00 0.000000000000000000e+00
1.000000000000000021e-02 6.318309632647340912e-01 5.621756471326311289e-01 1.111333410908986075e+00 7.468913462051872676e-01 1.966659613032798737e-01 1.318336866846176125e+00 0.000000000000000000e+00 0.000000000000000000e+00 0.000000000000000000e+00
1.000000000000000021e-02 1.070950016562969953e+00 1.645058558816323790e+00 -2.300332376937173517e+00 -5.418310589225174834e-01 1.778072878503332011e-01 -5.181983088121813186e-01 0.000000000000000000e+00 0.000000000000000000e+00 0.000000000000000000e+00
1.000000000000000021e-02 -1.051472677143993506e+00 -1.092336551502670616e+00 -1.063223852991591750e-01 -3.740848908565042041e-01 4.409150200483322735e-01 8.173254863183272434e-01 0.000000000000000000e+00 0.000000000000000000e+00 0.000000000000000000e+00
1.000000000000000021e-02 8.344334020879223823e-01 -1.896577475652182043e+00 -4.231886876557870991e-01 -1.369684766645637541e+00 2.320192596593382284e+00 -6.217213153516910618e-01 0.000000000000000000e+00 0.000000000000000000e+00 0.000000000000000000e+00
1.000000000000000021e-02 -7.321607093752867668e-01 -9.943391889345509771e-02 -4.512120251944443661e-01 -1.812093019116643999e-01 -9.997072945236145092e-01 7.470714222741783317e-01 0.000000000000000000e+00 0.000000000000000000e+00 0.000000000000000000e+00
1.000000000000000021e-02 -1.348206425360708227e+00 9.460061778556333456e-01 -3.407328336151006498e-01 1.165037775983807755e+00 1.962368773748118134e+00 1.427022596829279122e+00 0.000000000000000000e+00 0.000000000000000000e+00 0.000000000000000000e+00
1.000000000000000021e-02 -7.601376468230977013e-01 -5.717084887686860739e-01 -1.458346129979900097e+00 1.509915391279315289e+00 -2.102747833948067635e-01 -4.077541737135043642e-01 0.000000000000000000e+00 0.000000000000000000e+00 0.000000000000000000e+00
1.000000000000000021e-02 -2.410363844231683816e-01 8.666656484982223629e-01 -7.479612992761869306e-01 7.809568368199919508e-01 -1.392324521131886872e+00 1.670117066032356323e+00 0.000000000000000000e+00 0.000000000000000000e+00 0.000000000000000000e+00
1.000000000000000021e-02 1.697543119586213400e+00 -6.539440112229210067e-01 9.014148581490578627e-01 -3.798839040626434405e-01 4.397516002564449966e-02 -1.515605761656869596e-02 0.000000000000000000e+00 0.000000000000000000e+00 0.000000000000000000e+00
1.000000000000000021e-02 -1.594409043738984399e+00 -2.672813114022595249e-01 -3.090476962821454565e-01 -8.586681966211684447e-01 1.960884679020734600e-01 3.823523460746842684e-01 0.000000000000000000e+00 0.000000000000000000e+00 0.000000000000000000e+00
1.000000000000000021e-02 1.125397367908529678e-01 -6.259895095680662047e-01 -1.197163670747082520e+00 8.921959823129834710e-01 1.271618848671009605e+00 -7.202495557383505886e-01 0.000000000000000000e+00 0.000000000000000000e+00 0.000000000000000000e+00
1.000000000000000021e-02 2.984215621553111819e-01 6.513341619907134783e-01 -6.456872092889103243e-01 3.548277718361225741e-01 -2.667658395591613330e-01 6.137324989531610653e-01 0.000000000000000000e+00 0.000000000000000000e+00 0.000000000000000000e+00
1.000000000000000021e-02 -1.670224050057379783e-01 -9.565971067383229054e-02 -1.358538003458499066e+00 7.882985509620612508e-01 -1.136874532874806581e-01 -5.902597363673027786e-01 0.000000000000000000e+00 0.000000000000000000e+00 0.000000000000000000e+00
1.000000000000000021e-02 -1.241209304910319222e+00 -4.300421572676281223e-01 -7.121206778720227115e-01 -2.963973063568264843e-01 -1.180716847648677792e+00 -1.624854689645913952e+00 0.000000000000000000e+00 0.000000000000000000e+00 0.000000000000000000e+00
1.000000000000000021e-02 4.626212246702313124e-01 -1.094456844204789503e+00 -1.014928697856263495e+00 -1.188001504334799563e+00 -9.041073265844822293e-01 4.861164210470891311e-01 0.000000000000000000e+00 0.000000000000000000e+00 0.000000000000000000e+00
1.000000000000000021e-02 9.218255140499720390e-01 -1.256753140422498083e+00 -4.686254538943156189e-02 -1.010066437696407915e+00 -1.271122640612928123e+00 -1.531510219071617607e-01 0.000000000000000000e+00 0.000000000000000000e+00 0.000000000000000000e+00
1.000000000000000021e-02 -2.512811116253693688e-01 -3.327323466318922729e-01 1.092842061740023407e+00 1.448475034204908640e+00 1.082630506936629877e-01 3.699364480719083970e-01 0.000000000000000000e+00 0.000000000000000000e+00 0.000000000000000000e+00
1.000000000000000021e-02 -5.698616132723511862e-01 1.048148288449609389e+00 3.205058069471242721e-01 -3.722707127839545160e-01 1.821942409438669586e+00 -9.612843010543045130e-01 0.000000000000000000e+00 0.000000000000000000e+00 0.000000000000000000e+00
1.000000000000000021e-02 -6.520350793794107425e-01 -5.829620498033901699e-01 -2.750441326664679331e-01 -8.357855076719001852e-01 -7.043674584327916932e-01 3.298780989345580505e-01 0.000000000000000000e+00 0.000000000000000000e+00 0.000000000000000000e+00
1.000000000000000021e-02 1.780561213131849618e-01 2.880858849830062240e+00 7.024143257494757098e-01 -2.449326614759334830e-01 -3.151628559239050831e-01 -3.315340521057059675e-01 0.000000000000000000e+00 0.000000000000000000e+00 0.000000000000000000e+00
1.000000000000000021e-02 1.634188637377526954e+00 -6.239720976240057393e-01 1.095784895298436978e-01 -2.622519028813721093e-02 6.657312258626107981e-01 4.472934781146556404e-01 0.000000000000000000e+00 0.000000000000000000e+00 0.000000000000000000e+00
1.000000000000000021e-02 3.229916348506710333e-02 -5.584911286727269886e-01 -6.504467059679474028e-01 2.441799174724895438e-01 1.999329244725933874e+00 -2.925140604735222971e-01 0.000000000000000000e+00 0.000000000000000000e+00 0.000000000000000000e+00
1.000000000000000021e-02 3.859601244144785781e-01 6.188194674464042588e-01 -1.310488030020160899e+00 1.075180722381117615e+00 2.881755937037035475e-01 -5.627167172358502611e-01 0.000000000000000000e+00 0.000000000000000000e+00 0.000000000000000000e+00
1.000000000000000021e-02 1.171799711632413921e+00 5.775690532094331919e-01 -7.845702356746936390e-01 -1.088520054207705812e+00 1.395065734360038778e+00 -2.697681479589270070e-01 0.000000000000000000e+00 0.000000000000000000e+00 0.000000000000000000e+00
1.000000000000000021e-02 -1.493021428052855315e-01 -8.843915641130035699e-01 -2.782790906497366046e-01 -1.335360844516107814e+00 -8.564619229165403302e-01 1.590126951485576479e-01 0.000000000000000000e+00 0.000000000000000000e+00 0.000000000000000000e+00
1.000000000000000021e-02 3.946985826066997660e-01 1.322671562088559405e+00 1.406237130030911775e+00 -9.112314447541212115e-01 -2.646711539827015791e-01 6.628180692586976841e-01 0.000000000000000000e+00 0.000000000000000000e+00 0.000000000000000000e+00
1.000000000000000021e-02 -1.027139396324383336e+00 -2.155476015489260710e+00 1.100100864335518569e+00 -2.202762298446176714e-01 9.453615643742352415e-02 -1.634258745252025191e-01 0.000000000000000000e+00 0.000000000000000000e+00 0.000000000000000000e+00
1.000000000000000021e-02 -9.053696041704890896e-02 7.298964732685643275e-01 -9.474955533815919706e-01 2.403228339257811874e-01 -1.997348473220887932e+00 -3.980294213180344820e-01 0.000000000000000000e+00 0.000000000000000000e+00 0.000000000000000000e+00
1.000000000000000021e-02 -5.376823302015195649e-01 1.584335377608079298e-01 9.438414604817366160e-02 -4.944702992035903688e-01 -3.109402497606930660e-01 1.485138504922736358e+00 0.000000000000000000e+00 0.000000000000000000e+00 0.000000000000000000e+00
1.000000000000000021e-02 1.033435259206275436e+00 -4.336008398801962649e-01 -1.445716814436751818e+00 -2.319362176661444064e+00 -1.668893533458823519e+00 -5.323068309228958794e-01 0.000000000000000000e+00 0.000000000000000000e+00 0.000000000000000000e+00
1.000000000000000021e-02 1.680590569952098712e-01 -1.596999961465446205e+00 3.494149172053078178e-01 -1.035219706796457056e-01 -1.757891476622341631e-01 2.009419093188731520e-02 0.000000000000000000e+00 0.000000000000000000e+00 0.000000000000000000e+00
1.000000000000000021e-02 7.516358214692555606e-01 -8.228077870658938586e-01 -1.124157625374684333e+00 1.101583061782629783e-02 -2.720699729915113663e-01 -9.138705487092976809e-02 0.000000000000000000e+00 0.000000000000000000e+00 0.000000000000000000e+00
1.000000000000000021e-02 2.703013823180222541e-01 -1.056716240673456264e+00 -2.704482127520035362e-01 -3.664887401590609661e-01 -1.246724149429336626e+00 -5.478349028481883654e-01 0.000000000000000000e+00 0.000000000000000000e+00 0.000000000000000000e+00
1.000000000000000021e-02 4.044518357836594524e-01 6.831224650075141680e-01 -1.053999905214921595e+00 4.056562787317734287e-02 -4.241543016550240464e-01 7.166142953887252864e-02 0.000000000000000000e+00 0.000000000000000000e+00 0.000000000000000000e+00
1.000000000000000021e-02 -4.620348502219341902e-01 3.182903868485505439e-01 1.151938093160792320e+00 1.866999645242296002e-01 2.711652375195064413e-01 2.848108106536758055e-01 0.000000000000000000e+00 0.000000000000000000e+00 0.000000000000000000e+00
1.000000000000000021e-02 -5.078541917984169540e-01 -6.821607259766995779e-02 -7.114786917067317251e-02 1.256421097670866960e+00 6.509296771802101089e-01 -9.415754548486822140e-01 0.000000000000000000e+00 0.000000000000000000e+00 0.000000000000000000e+00
1.000000000000000021e-02 -1.950975319629122628e+00 -1.734753496926518146e+00 -7.609731618519326446e-01 2.724597601695497584e-01 3.113888092482268277e+00 1.187081538294784133e+00 0.000000000000000000e+00 0.000000000000000000e+00 0.000000000000000000e+00
1.000000000000000021e-02 1.796034678253613182e+00 1.078645890703163746e+00 2.057116658031864498e-01 -1.291035651056493982e+00 1.031559742620088649e+00 -1.631652397287217671e+00 0.000000000000000000e+00 0.000000000000000000e+00 0.000000000000000000e+00
1.000000000000000021e-02 -1.077950257607708462e+00 7.891181339784185678e-01 -9.981520522190093780e-01 8.814182508534670335e-01 7.087206745175049782e-01 2.491660496971712935e-01 0.000000000000000000e+00 0.000000000000000000e+00 0.000000000000000000e+00
1.000000000000000021e-02 1.267807739595769867e+00 1.264396653922848168e+00 -2.608838620146108345e-01 -9.482957417902615482e-01 -2.340092982491543960e-01 -3.225095831263774526e-01 0.000000000000000000e+00 0.000000000000000000e+00 0.000000000000000000e+00
1.000000000000000021e-02 -2.746510219784120133e-01 3.970702196363224967e-01 -6.106414049054242899e-01 1.079895077307137630e+00 -3.474813992808208907e-01 1.034067263866229741e-01 0.000000000000000000e+00 0.000000000000000000e+00 0.000000000000000000e+00
1.000000000000000021e-02 -6.646247237441242905e-01 -7.507622460466760739e-01 -7.155581828886090623e-01 1.281080807980924940e-01 -1.609968023740376564e-01 -1.272521801037146849e+00 0.000000000000000000e+00 0.000000000000000000e+00 0.000000000000000000e+00
1.000000000000000021e-02 1.339145853662613961e+00 -1.005544766521069416e-01 1.974999040759759794e-01 -3.917781678458645001e-01 -1.035693928040880424e-01 1.241271300925885918e-01 0.000000000000000000e+00 0.000000000000000000e+00 0.000000000000000000e+00
1.000000000000000021e-02 5.884448734229547062e-01 -9.975288449656227741e-01 9.694364798058073829e-01 -2.159516792301418686e+00 -2.286700813109095343e+00 1.074024985169950819e+00 0.000000000000000000e+00 0.000000000000000000e+00 0.000000000000000000e+00
1.000000000000000021e-02 1.297404143431674761e+00 1.514705881019724476e+00 5.626609961407327276e-01 -1.282960305647443955e-01 -8.144929107087103271e-01 1.033573227669823291e+00 0.000000000000000000e+00 0.000000000000000000e+00 0.000000000000000000e+00
1.000000000000000021e-02 -5.653855642580273289e-01 2.248404588579645313e+00 9.191651802499537505e-01 -4.180111380219461159e-01 2.540064000139313216e-01 2.130233241068114070e-01 0.000000000000000000e+00 0.000000000000000000e+00 0.000000000000000000e+00
1.000000000000000021e-02 1.293115766416888635e+00 4.691381462614046538e-01 6.197206556373821007e-01 -2.862774121859001930e-01 -8.263162715350931276e-01 4.428504454122656475e-01 0.000000000000000000e+00 0.000000000000000000e+00 0.000000000000000000e+00
1.000000000000000021e-02 6.697005804457344391e-01 -1.782776764625681576e+00 -7.046285196008560403e-01 -1.344555494930553541e-01 -1.403610797235432528e-01 5.559274961278823923e-01 0.000000000000000000e+00 0.000000000000000000e+00 0.000000000000000000e+00
1.000000000000000021e-02 2.414006279409792288e+00 -2.574108534858590702e-01 8.405276671840368197e-01 -2.252040915375088659e+00 1.924785148883246588e+00 7.427058535879224044e-01 0.000000000000000000e+00 0.000000000000000000e+00 0.000000000000000000e+00
1.000000000000000021e-02 -1.145727574874395804e+00 3.595186069926532557e-01 -2.232471348137410050e-01 2.885622097422931853e-01 4.962486397484990874e-01 1.887055439665730194e-01 0.000000000000000000e+00 0.000000000000000000e+00 0.000000000000000000e+00
1.000000000000000021e-02 -9.620335855978632278e-01 1.016771035800235340e-01 4.831896049121936487e-01 -2.131210311510195243e+00 1.061362261126889139e+00 4.775437494289899165e-01 0.000000000000000000e+00 0.000000000000000000e+00 0.000000000000000000e+00
1.000000000000000021e-02 3.278331237225819983e-01 6.016313378315670812e-01 -5.423939782551234767e-03 -4.586206074050455106e-01 -9.434677042760982735e-01 -3.254005398169986796e-01 0.000000000000000000e+00 0.000000000000000000e+00 0.000000000000000000e+00
1.000000000000000021e-02 -8.303590087620114080e-01 -6.947959421128019342e-02 1.293776320241768252e+00 -8.687563882935976645e-02 -2.057688328934736410e-01 -1.090000553013079188e+00 0.000000000000000000e+00 0.000000000000000000e+00 0.000000000000000000e+00
1.000000000000000021e-02 -2.483831723962751370e-01 -8.242391518866846178e-01 2.501419629288610391e-01 -9.937315414437715433e-02 2.563836797901732023e+00 1.490406659825042335e-01 0.000000000000000000e+00 0.000000000000000000e+00 0.000000000000000000e+00
1.000000000000000021e-02 -1.358124118793923474e+00 -3.666830246203634652e-02 -2.927470113584894618e-01 1.578318083024530805e-01 5.317397457564045915e-01 7.483403246755021554e-01 0.000000000000000000e+00 0.000000000000000000e+00 0.000000000000000000e+00
1.000000000000000021e-02 -8.553874330811197524e-01 -1.764070636652036450e+00 -1.400561343267073156e+00 3.690036092509433319e-01 -1.589971746314180256e+00 2.540407496672823395e+00 0.000000000000000000e+00 0.000000000000000000e+00 0.000000000000000000e+00
1.000000000000000021e-02 2.638609825573058898e-01 6.722550465974878042e-01 -5.035569203915630787e-01 -3.400505997916113410e-01 -1.317011566287407565e+00 -8.653536331979896912e-02 0.000000000000000000e+00 0.000000000000000000e+00 0.000000000000000000e+00
1.000000000000000021e-02 -4.029939234034688456e-01 -1.001741202402463560e-01 -1.627322674040965755e-01 -2.524503849511824383e-01 -4.640046538540807397e-01 6.737574659861543802e-01 0.000000000000000000e+00 0.000000000000000000e+00 0.000000000000000000e+00
1.000000000000000021e-02 -6.085937720876603008e-01 -4.608373901971136166e-01 6.657239983130380789e-01 -1.887766169467290478e+00 7.253788117986391670e-01 1.134196636680660397e+00 0.000000000000000000e+00 0.000000000000000000e+00 0.000000000000000000e+00
1.000000000000000021e-02 -8.661388521707098498e-01 -2.127265251668776502e-01 7.456277999069595153e-03 2.140965385649821862e+00 -2.321210011620199187e-01 9.701265377476516738e-01 0.000000000000000000e+00 0.000000000000000000e+00 0.000000000000000000e+00
1.000000000000000021e-02 1.300254966954221381e+00 -1.719203113836833330e+00 -1.206768460814216182e+00 1.084862214748923970e+00 -5.019888492190927032e-01 -1.707496416541391060e+00 0.000000000000000000e+00 0.000000000000000000e+00 0.000000000000000000e+00
1.000000000000000021e-02 -9.745273955088097351e-01 7.597521575344414746e-01 3.859837953467775140e-01 1.000230928386254048e+00 -1.589879987114341198e+00 -1.212074356389931884e+00 0.000000000000000000e+00 0.000000000000000000e+00 0.000000000000000000e+00
1.000000000000000021e-02 -6.360101653639674835e-01 9.186780193563064412e-01 -6.927782805220422668e-01 -9.273728317503303620e-01 -7.115481312879846643e-01 3.978643036660403642e-02 0.000000000000000000e+00 0.000000000000000000e+00 0.000000000000000000e+00
1.000000000000000021e-02 8.828075430305706295e-01 -5.478708405789108893e-01 1.188043529389848363e+00 1.809407876251870328e-01 -1.788731468639533917e+00 -4.899706831093552095e-01 0.000000000000000000e+00 0.000000000000000000e+00 0.000000000000000000e+00
1.000000000000000021e-02 1.518145624390995208e+00 8.354193211157051602e-01 -2.187084255926718512e+00 -1.875181170464625402e-01 -1.146825137218090429e+00 6.107287544906470078e-01 0.000000000000000000e+00 0.000000000000000000e+00 0.000000000000000000e+00
1.000000000000000021e-02 -7.000027157637077335e-02 4.000451133161262995e-01 4.825039601780810594e-01 6.984400142011881751e-01 -7.970817993594530027e-01 3.185319885636967441e-01 0.000000000000000000e+00 0.000000000000000000e+00 0.000000000000000000e+00
1.000000000000000021e-02 1.018522001616971373e+00 -6.945280884075022421e-01 -1.639161274543512459e-01 -4.377226560749212791e-01 -5.869911455862431016e-02 6.008901082052358067e-01 0.000000000000000000e+00 0.000000000000000000e+00 0.000000000000000000e+00
1.000000000000000021e-02 1.166474660914007311e+00 4.496231034483650912e-01 8.566908718992547467e-01 5.086065625087915487e-01 -1.028292819205255837e+00 2.073757371228568402e+00 0.000000000000000000e+00 0.000000000000000000e+00 0.000000000000000000e+00
1.000000000000000021e-02 1.833035045735985191e+00 1.433896632812152294e+00 -1.986157778388225326e-01 9.674179470851560492e-01 1.513221096123582132e+00 1.001460399726691763e+00 0.000000000000000000e+00 0.000000000000000000e+00 0.000000000000000000e+00
1.000000000000000021e-02 2.446470718043082471e+00 8.240259184606890663e-02 -1.218829762153344820e+00 2.433329300977325804e+00 1.400544420738148721e-01 -3.700292819197809058e-01 0.000000000000000000e+00 0.000000000000000000e+00 0.000000000000000000e+00
1.000000000000000021e-02 1.215367752150114056e+00 1.257660658370824525e+00 -1.447587605897377561e+00 -3.311247334635729067e-01 -2.450007515732349761e-01 -2.376994023147373514e-01 0.000000000000000000e+00 0.000000000000000000e+00 0.000000000000000000e+00
1.000000000000000021e-02 4.772088415234940761e-01 -1.502326757306144067e+00 -3.282358438613826035e-01 1.240366305322181617e+00 5.992807299936925292e-01 6.800383804913986419e-01 0.000000000000000000e+00 0.000000000000000000e+00 0.000000000000000000e+00
1.000000000000000021e-02 1.485808639068599613e+00 1.092162594030857470e+00 8.601578269587528691e-01 -7.239189780784521799e-01 -5.415016881308011287e-01 3.012810613636926135e-02 0.000000000000000000e+00 0.000000000000000000e+00 0.000000000000000000e+00
1.000000000000000021e-02 1.007205645032301256e+00 -1.446302761324593233e-01 -1.413393207872220558e-01 -3.172346496985568587e-01 3.057537323854740974e-01 -4.802542024303893542e-01 0.000000000000000000e+00 0.000000000000000000e+00 0.000000000000000000e+00
1.000000000000000021e-02 9.635255254091996679e-01 1.821197273522878302e+00 2.598137528500748528e-01 -3.186961637306279238e-03 1.328118303740881134e-01 1.335086420985249989e+00 0.000000000000000000e+00 0.000000000000000000e+00 0.000000000000000000e+00
1.000000000000000021e-02 -5.634037968021251563e-01 -2.503862292859863892e-02 1.606368939345800051e+00 -7.246180247634402202e-03 -8.169989642556974019e-01 8.022651337424274720e-02 0.000000000000000000e+00 0.000000000000000000e+00 0.000000000000000000e+00
1.000000000000000021e-02 -4.122530877578637343e-01 1.311826311686068447e+00 1.140317119669452262e-01 -1.464376850077534487e-01 1.158247906608540267e+00 -9.809602949609778078e-01 0.000000000000000000e+00 0.000000000000000000e+00 0.000000000000000000e+00
1.000000000000000021e-02 6.621512910153010134e-01 -3.726425300057288892e-01 -1.022071946444553125e+00 9.572536472546500086e-01 4.103349471689414496e-02 1.465240406945308882e+00 0.000000000000000000e+00 0.000000000000000000e+00 0.000000000000000000e+00
1.000000000000000021e-02 1.463516937539154572e+00 8.271456327943897679e-02 -3.271169160840215473e-01 -2.002770806370986811e+00 1.749647205048793577e-02 -3.075259884123545118e-01 0.000000000000000000e+00 0.000000000000000000e+00 0.000000000000000000e+00
1.000000000000000021e-02 1.941901923312607137e+00 -1.193148132879078060e+00 1.441032782379733534e+00 -7.674968106937360979e-01 6.483356133144749234e-02 4.800802603630784926e-01 0.000000000000000000e+00 0.000000000000000000e+00 0.000000000000000000e+00
1.000000000000000021e-02 -7.798876377413106464e-01 1.706934294219731862e+00 1.314484689695152086e+00 -1.490956436914703920e+00 -9.605990196505053147e-01 -8.706256410753990815e-01 0.000000000000000000e+00 0.000000000000000000e+00 0.000000000000000000e+00
1.000000000000000021e-02 5.583527921438007358e-01 1.522485134998870393e+00 -4.005871847244847905e-01 2.305247980525850338e+00 -9.225320312817908430e-01 -1.186500643818296563e+00 0.000000000000000000e+00 0.000000000000000000e+00 0.000000000000000000e+00
1.000000000000000021e-02 -1.527611672459925352e+00 1.054019476224040019e+00 -1.642017880807727093e-01 -1.683230280777206489e-01 1.988359910395542593e-02 9.681800732618909278e-01 0.000000000000000000e+00 0.000000000000000000e+00 0.000000000000000000e+00
1.000000000000000021e-02 -5.438389567148591008e-02 7.796298284560367886e-01 1.454260645839044575e+00 1.146280540061186626e+00 -4.247967604288968024e-01 8.695698415175961982e-01 0.000000000000000000e+00 0.000000000000000000e+00 0.000000000000000000e+00
1.000000000000000021e-02 -1.888847627255792472e-01 -1.708728692040838992e-01 -9.960372782198970848e-03 1.512256019993776013e+00 1.868541405154707305e-02 -1.325699638446250717e+00 0.000000000000000000e+00 0.000000000000000000e+00 0.000000000000000000e+00
1.000000000000000021e-02 1.508014177437918990e+00 2.401143143423012383e+00 -1.104109169019960701e+00 -7.766223841585985221e-01 3.462600233222098978e-02 -7.691204673429321570e-01 0.000000000000000000e+00 0.000000000000000000e+00 0.000000000000000000e+00
1.000000000000000021e-02 -1.749490707069349948e-01 -3.207071938826506208e-01 3.620088341181657565e-01 7.342938949455836140e-01 -3.387250813460728205e-01 7.202162667384568451e-01 0.000000000000000000e+00 0.000000000000000000e+00 0.000000000000000000e+00
1.000000000000000021e-02 -5.040761101688804313e-01 -1.282211457442285374e+00 1.704513075197261474e+00 2.395332758542044749e-01 -8.409390074969713691e-01 -4.247989149924074059e-01 0.000000000000000000e+00 0.000000000000000000e+00 0.000000000000000000e+00
1.000000000000000021e-02 -3.659194538639545802e-01 -1.288360328594001292e+00 4.177536477862602848e-01 -7.169866586242154005e-01 -7.508710295457718953e-01 4.387046784846552194e-01 0.000000000000000000e+00 0.000000000000000000e+00 0.000000000000000000e+00
1.000000000000000021e-02 -1.343941298068447754e+00 -1.418398634310219286e+00 6.597343941284160573e-01 1.422571225080199175e-01 1.028804117531765483e+00 -2.323258758525741374e+00 0.000000000000000000e+00 0.000000000000000000e+00 0.000000000000000000e+00
1.000000000000000021e-02 -4.918628792066518374e-01 -7.124213595195575399e-01 3.039781254381671571e-01 1.349272928390428561e+00 2.614528518647202260e-01 9.092528792666315640e-01 0.000000000000000000e+00 0.000000000000000000e+00 0.000000000000000000e+00
1.000000000000000021e-02 -9.330528375121167617e-01 1.058329433632099636e+00 -1.306442566499752100e+00 -3.445375114079895357e-02 -6.385550658968486282e-01 5.904402374041191059e-01 0.000000000000000000e+00 0.000000000000000000e+00 0.000000000000000000e+00
1.000000000000000021e-02 -2.311750928979299680e+00 -6.299883064752261896e-01 2.135209485083790770e-01 -2.406689741172330699e+00 -3.561115812957311166e-01 1.139263325480561306e+00 0.000000000000000000e+00 0.000000000000000000e+00 0.000000000000000000e+00
1.000000000000000021e-02 -9.567000241479088896e-01 9.714895851536214932e-01 -7.044887462159512559e-01 1.319934951975507476e+00 -1.166110398400928672e+00 -8.293841764583056442e-01 0.000000000000000000e+00 0.000000000000000000e+00 0.000000000000000000e+00
1.000000000000000021e-02 -8.159584338438402584e-01 -1.628263916212601581e+00 1.236593287930421781e+00 -5.109101155111246406e-01 9.036438278217246989e-01 1.620765979805136148e+00 0.000000000000000000e+00 0.000000000000000000e+00 0.000000000000000000e+00
1.000000000000000021e-02 -5.762781997594784711e-01 3.904540230320425742e-01 3.378285787925021100e-01 -1.197746200300913166e+00 -1.576343550657626658e+00 6.225492913515128235e-01 0.000000000000000000e+00 0.000000000000000000e+00 0.000000000000000000e+00
1.000000000000000021e-02 1.554817749401345095e+00 3.583552087676334930e-01 1.691602049829500132e+00 -1.047770119574248371e-01 1.978215209134899510e-01 -1.970158381854640872e-01 0.000000000000000000e+00 0.000000000000000000e+00 0.000000000000000000e+00
1.000000000000000021e-02 -1.078698114419199411e-01 -1.004250694659233112e+00 -1.580785613236799447e+00 -1.061203561571318454e+00 -1.152523957591577775e+00 3.316343597492418471e+00 0.000000000000000000e+00 0.000000000000000000e+00 0.000000000000000000e+00
1.000000000000000021e-02 -2.152873989808372635e+00 -8.829815114160788347e-01 -9.272166593527073619e-01 7.921130731795686941e-01 -2.423837067408170232e-01 -8.330322596779262678e-01 0.000000000000000000e+00 0.000000000000000000e+00 0.000000000000000000e+00
1.000000000000000021e-02 -3.370666885097234333e-01 -1.151380893952385742e+00 1.119911467761696144e-01 3.790481480576050055e-01 -1.522223647113396527e+00 1.755568733877245491e-01 0.000000000000000000e+00 0.000000000000000000e+00 0.000000000000000000e+00
1.000000000000000021e-02 -4.854354050920301478e-01 -1.297690467191134012e+00 -2.534619283467715034e-01 -3.280425371216502128e-01 -1.562720203364250438e+00 1.092287425633586162e+00 0.000000000000000000e+00 0.000000000000000000e+00 0.000000000000000000e+00
1.000000000000000021e-02 3.660384766455718197e-01 -1.459503605688507566e+00 -6.392616927754919409e-01 -6.365080195860611800e-02 1.809614696108304693e-02 8.085666139629648086e-01 0.000000000000000000e+00 0.000000000000000000e+00 0.000000000000000000e+00
1.000000000000000021e-02 2.477101779375275314e-01 -1.100005708805046778e+00 -7.355192347907733019e-01 1.012771685379156406e+00 1.950852361883632369e-01 1.260356902546145186e+00 0.000000000000000000e+00 0.000000000000000000e+00 0.000000000000000000e+00
1.000000000000000021e-02 -8.353934909224837169e-01 2.153966379899262318e+00 -2.223106797759210052e-01 -1.282276551261407382e+00 -2.726831323629558268e-01 3.437111971533330368e-01 0.000000000000000000e+00 0.000000000000000000e+00 0.000000000000000000e+00
1.000000000000000021e-02 4.171821449190808440e-01 1.642748701796553412e+00 1.218041582788970956e-01 5.166874805037358076e-01 -4.280690554843233353e-01 1.070229844892196081e+00 0.000000000000000000e+00 0.000000000000000000e+00 0.000000000000000000e+00
1.000000000000000021e-02 -1.510378770459549047e+00 -4.189340931914116717e-01 -9.635401163430877824e-01 1.347615259834976931e-01 9.660021565843258662e-01 3.158181094484585616e-01 0.000000000000000000e+00 0.000000000000000000e+00 0.000000000000000000e+00
1.000000000000000021e-02 9.047479445559090117e-01 1.800584471392805641e+00 -3.448216444149447835e-01 -1.471959790638420473e-01 -7.303211506709471612e-01 4.606768764896359003e-01 0.000000000000000000e+00 0.000000000000000000e+00 0.000000000000000000e+00
1.000000000000000021e-02 -9.537871039994824107e-01 -1.813910725199016638e-01 6.015157115548440681e-01 1.617487678006535035e-01 -5.258462594335837348e-02 2.914376067137909310e-01 0.000000000000000000e+00 0.000000000000000000e+00 0.000000000000000000e+00
1.000000000000000021e-02 2.335383170470755609e-01 1.187288759564246954e+00 -1.615016869146823075e-01 -2.513884981411181663e+00 6.018297653955715365e-01 -2.004399089857830329e+00 0.000000000000000000e+00 0.000000000000000000e+00 0.000000000000000000e+00
1.000000000000000021e-02 1.416092234663003824e+00 -2.162956644805847095e-01 -4.731026232367294138e-01 9.814848150759202250e-01 1.553210331041566361e+00 -8.728714764308546092e-01 0.000000000000000000e+00 0.000000000000000000e+00 0.000000000000000000e+00
1.000000000000000021e-02 -2.734273305688976752e-01 -2.016928284882231748e-01 -2.132401101350040462e-01 -1.333047295973544266e-01 3.964133414900998242e-01 7.187033527030194380e-01 0.000000000000000000e+00 0.000000000000000000e+00 0.000000000000000000e+00
1.000000000000000021e-02 8.758197778559066726e-03 -3.154407150328976117e-01 5.176826887129419852e-01 1.664297459496672182e+00 7.683632785079974603e-01 4.518140449013894333e-01 0.000000000000000000e+00 0.000000000000000000e+00 0.000000000000000000e+00
1.000000000000000021e-02 2.000709940421630806e-01 1.267623234183041125e+00 3.309815482878133985e-01 -1.017780704375483403e+00 -1.732178550747343615e-01 1.167470145114809024e-02 0.000000000000000000e+00 0.000000000000000000e+00 0.000000000000000000e+00
1.000000000000000021e-02 1.152570408086146747e+00 8.742044300778080146e-01 9.210334391857839531e-01 -3.476025274728073433e-01 -8.257750488697850055e-02 2.374717394533119030e-01 0.000000000000000000e+00 0.000000000000000000e+00 0.000000000000000000e+00
1.000000000000000021e-02 5.789665243140203893e-02 -1.504847988462074126e-01 3.970884964148947427e-01 4.126086939886505212e-01 -8.742496637536789628e-01 4.823588616497911929e-01 0.000000000000000000e+00 0.000000000000000000e+00 0.000000000000000000e+00
1.000000000000000021e-02 1.470694193015467111e-01 1.201971725432859905e+00 2.875636955296138608e-01 1.664040453906405481e-01 -7.234079961523603997e-01 5.173099988664039417e-01 0.000000000000000000e+00 0.000000000000000000e+00 0.000000000000000000e+00
1.000000000000000021e-02 -7.508983223572275323e-01 1.319290013580921350e+00 -8.722434498650875057e-01 6.444070180365537581e-01 1.671848740722542193e+00 1.878366514286912703e-01 0.000000000000000000e+00 0.000000000000000000e+00 0.000000000000000000e+00
1.000000000000000021e-02 7.009511047379202164e-01 -6.098270656826488834e-01 -1.176071764558179966e+00 9.645222159525528305e-01 -1.898022183258135209e+00 -1.653620200573629129e+00 0.000000000000000000e+00 0.000000000000000000e+00 0.000000000000000000e+00
1.000000000000000021e-02 -5.687801816824921142e-01 -3.710056025087803966e-01 3.840974529617811051e-01 7.996550611690184107e-01 1.343567510974849277e+00 -1.119369772126223683e+00 0.000000000000000000e+00 0.000000000000000000e+00 0.000000000000000000e+00
1.000000000000000021e-02 6.842278070955862823e-01 -7.793928531509858315e-01 1.400754118031712903e-01 1.900295267889811901e-01 -2.929868948485209734e-01 1.414431509335609904e+00 0.000000000000000000e+00 0.000000000000000000e+00 0.000000000000000000e+00
1.000000000000000021e-02 2.556633504683072822e+00 4.145388234905906799e-01 1.137416632281162521e+00 1.128359302467518033e+00 6.980102725665695562e-01 -5.782038243016134338e-01 0.000000000000000000e+00 0.000000000000000000e+00 0.000000000000000000e+00
1.000000000000000021e-02 -1.616250349897052851e+00 1.016860854630349920e+00 -3.625628472169854510e-01 2.831146177568204525e-01 1.302197616228263355e-01 9.462449139031929857e-01 0.000000000000000000e+00 0.000000000000000000e+00 0.000000000000000000e+00
1.000000000000000021e-02 2.356451671280624716e+00 4.973494410767260732e-01 3.922115936309076845e-01 6.763189981106104698e-01 -1.075214681919927084e+00 -6.015072347953582810e-01 0.000000000000000000e+00 0.000000000000000000e+00 0.000000000000000000e+00
1.000000000000000021e-02 1.406744229427102644e-01 -1.142991344852997138e+00 -3.875520554090265968e-01 9.188245925826463711e-01 3.276577605695649154e-02 1.528289813089729332e+00 0.000000000000000000e+00 0.000000000000000000e+00 0.000000000000000000e+00
1.000000000000000021e-02 3.481646212759045289e-01 -2.910262163089843424e-01 1.303023143344828494e+00 2.182135467669676920e-01 1.006429383095771790e+00 -1.189681185455755852e+00 0.000000000000000000e+00 0.000000000000000000e+00 0.000000000000000000e+00
1.000000000000000021e-02 5.196242355084046416e-01 -3.896931791066426259e-02 1.726181152933117247e+00 7.741670982193330983e-03 1.732456511700175283e-01 3.952732395277481769e-01 0.000000000000000000e+00 0.000000000000000000e+00 0.000000000000000000e+00
1.000000000000000021e-02 -3.427987808536153702e-01 1.010720628280212141e+00 3.434483586744204175e-01 5.832025049084071933e-01 -5.831475213735275442e-01 6.664776277035863172e-01 0.000000000000000000e+00 0.000000000000000000e+00 0.000000000000000000e+00
1.000000000000000021e-02 2.322836821750540875e-02 -1.533431149656554915e+00 9.868194255294479578e-02 -7.679291511133363723e-01 9.827280776300797438e-01 1.929674621326734840e+00 0.000000000000000000e+00 0.000000000000000000e+00 0.000000000000000000e+00
1.000000000000000021e-02 -4.288521956661433543e-01 -6.929501299116234136e-01 2.424259725307289226e-01 1.143942216179854920e+00 -1.716349240899271433e-01 -1.141362397902892845e+00 0.000000000000000000e+00 0.000000000000000000e+00 0.000000000000000000e+00
1.000000000000000021e-02 1.327800642018280630e+00 -2.028811325331671134e-01 -1.145346426735829454e-01 5.599280602118125172e-01 -4.286896982278030621e-01 1.104413859766437023e+00 0.000000000000000000e+00 0.000000000000000000e+00 0.000000000000000000e+00
1.000000000000000021e-02 -1.117817868480008636e+00 -8.611582253624848471e-02 2.088355565229679800e-01 1.674913332955250134e+00 7.632906018229814737e-01 9.882631799585142041e-01 0.000000000000000000e+00 0.000000000000000000e+00 0.000000000000000000e+00
1.000000000000000021e-02 1.050367561927276094e+00 8.701689591228558562e-01 1.046884861269140377e+00 6.672867866445315599e-01 -4.927702027141324104e-01 4.261778399593418171e-02 0.000000000000000000e+00 0.000000000000000000e+00 0.000000000000000000e+00
1.000000000000000021e-02 -1.128793787142239768e+00 -1.683263780163449130e+00 4.579402223111340153e-01 -5.216576915999259212e-01 -7.941518529657394243e-01 1.089464702497556503e-01 0.000000000000000000e+00 0.000000000000000000e+00 0.000000000000000000e+00
1.000000000000000021e-02 1.646204696520574107e+00 -2.908734073818007304e-01 -1.717751629207836084e+00 -5.162101113504753425e-01 1.158348194488101057e-01 4.412284148351054425e-01 0.000000000000000000e+00 0.000000000000000000e+00 0.000000000000000000e+00
1.000000000000000021e-02 1.737125419319123454e+00 8.669672420056385720e-01 9.027757003397393065e-01 3.311341084037319055e-02 1.152909818395479125e+00 3.140324591417770761e-01 0.000000000000000000e+00 0.000000000000000000e+00 0.000000000000000000e+00
1.000000000000000021e-02 -3.085313071216067571e-01 2.342976588526714532e-01 -9.273643474061024072e-01 -1.102539913033387720e+00 1.693067391172372815e+00 1.795397242980588226e+00 0.000000000000000000e+00 0.000000000000000000e+00 0.000000000000000000e+00
1.000000000000000021e-02 1.536431387344392163e-01 -3.149939876975398345e-01 7.632714898937033032e-01 7.433987437389395769e-02 -2.186802491341504617e-01 9.747764192242300285e-02 0.000000000000000000e+00 0.000000000000000000e+00 0.000000000000000000e+00
1.000000000000000021e-02 -1.883751364024300878e-01 -1.505190211241266507e+00 1.795313023236356331e+00 1.585350614136193381e-01 2.835407623271176680e-01 -1.003954744516939890e+00 0.000000000000000000e+00 0.000000000000000000e+00 0.000000000000000000e+00
1.000000000000000021e-02 3.174879928781962901e-01 4.375100667470708249e-01 1.214340226315693272e+00 1.605896932730146165e-01 -6.669178757060252316e-01 1.474480455433394566e+00 0.000000000000000000e+00 0.000000000000000000e+00 0.000000000000000000e+00
1.000000000000000021e-02 -1.112049126635954677e+00 2.881043564162283910e-01 1.054506555171123156e-02 -3.295263064127673669e-01 -4.964361148945845709e-02 -5.677661740977805183e-01 0.000000000000000000e+00 0.000000000000000000e+00 0.000000000000000000e+00
1.000000000000000021e-02 -2.389670065810534649e-01 4.339618966097124053e-01 3.511747587317093355e-01 -5.686248912852711612e-01 2.489959834864870492e-01 -1.240333553609290540e+00 0.000000000000000000e+00 0.000000000000000000e+00 0.000000000000000000e+00
1.000000000000000021e-02 -1.501778456031017228e+00 -1.274720010608034304e+00 2.510217670480052732e+00 -3.404503890274188094e-01 -4.698997342901211627e-01 1.361750226294295096e+00 0.000000000000000000e+00 0.000000000000000000e+00 0.000000000000000000e+00
1.000000000000000021e-02 6.824380791998908569e-01 1.300371591792318871e+00 -2.047402307742535454e-01 -7.171594373643291886e-01 -1.497582536926042596e-01 5.415331809841662514e-01 0.000000000000000000e+00 0.000000000000000000e+00 0.000000000000000000e+00
1.000000000000000021e-02 -1.164744088074259332e-01 -4.791980961257999438e-01 6.620493926391357586e-02 -8.482780116679516924e-01 6.264418430504881119e-01 3.563641699659776951e-01 0.000000000000000000e+00 0.000000000000000000e+00 0.000000000000000000e+00
1.000000000000000021e-02 -5.224221516410254562e-01 -5.717488351254136347e-01 4.219283240674222557e-01 1.848444969568902863e-01 -5.896980195041143791e-01 -3.172594377102581076e-01 0.000000000000000000e+00 0.000000000000000000e+00 0.000000000000000000e+00
1.000000000000000021e-02 1.395830047209834224e-01 1.117215756773461521e+00 3.885624639811157688e-01 9.267908787243530622e-01 -2.490951106183513786e-01 1.102099996860382181e+00 0.000000000000000000e+00 0.000000000000000000e+00 0.000000000000000000e+00
1.000000000000000021e-02 1.817724920818258871e-02 9.255329386188546614e-01 3.520257191280012909e-02 -1.338624460361828250e+00 2.765345913945810530e+00 -7.735277460727084664e-01 0.000000000000000000e+00 0.000000000000000000e+00 0.000000000000000000e+00
1.000000000000000021e-02 -1.755742498960603248e-01 2.243959931153409748e+00 1.085527641651488073e+00 9.161844637859520857e-01 -8.853601105089060619e-01 3.906418488203035055e-01 0.000000000000000000e+00 0.000000000000000000e+00 0.000000000000000000e+00
1.000000000000000021e-02 1.090843092953564630e+00 7.586480636148422718e-01 -6.467124424565336982e-01 4.824742768299656870e-01 3.974016009508574143e-01 1.574155641615363255e+00 0.000000000000000000e+00 0.000000000000000000e+00 0.000000000000000000e+00
1.000000000000000021e-02 3.366863928423831087e-01 -1.057251356462634989e-01 -3.805378319135331311e-01 1.200165966608386592e+00 3.046990511754183450e-01 -1.108982428742469439e+00 0.000000000000000000e+00 0.000000000000000000e+00 0.000000000000000000e+00
1.000000000000000021e-02 3.680695510858668640e-01 4.906028505222723712e-01 -1.294040675434136867e-01 -8.466952145236874561e-01 -1.731300309959459938e+00 7.246538587503983941e-02 0.000000000000000000e+00 0.000000000000000000e+00 0.000000000000000000e+00
1.000000000000000021e-02 -8.312638934961289472e-01 1.686564297073794849e-01 1.125391161632541964e-01 6.596495486425658639e-01 2.179402756305219846e+00 5.852320513725380868e-01 0.000000000000000000e+00 0.000000000000000000e+00 0.000000000000000000e+00
1.000000000000000021e-02 -4.823954712774118359e-01 -4.553208562853783281e-01 3.420046444911705730e-01 3.528432964219634926e-01 3.558142720637378353e-01 -2.900937771224275097e-01 0.000000000000000000e+00 0.000000000000000000e+00 0.000000000000000000e+00
1.000000000000000021e-02 5.338659188747165718e-01 8.550170368055480807e-01 -1.205996429396960723e+00 5.820810488316667808e-01 1.798595953085116994e+00 -1.830480659906313257e+00 0.000000000000000000e+00 0.000000000000000000e+00 0.000000000000000000e+00
1.000000000000000021e-02 -1.029910362669631319e+00 -1.584016009993006513e+00 1.825434232448720773e-01 1.698218864943597639e+00 -1.927844085918085926e-01 -5.232690793929195561e-01 0.000000000000000000e+00 0.000000000000000000e+00 0.000000000000000000e+00
1.000000000000000021e-02 3.022484058542407870e-01 7.687132965966874121e-01 1.605431019632613809e+00 7.053227817568352709e-01 1.519099348324030041e-01 -1.998684819610339336e-01 0.000000000000000000e+00 0.000000000000000000e+00 0.000000000000000000e+00
1.000000000000000021e-02 1.572898285215746927e+00 2.525663798905882218e-01 1.171923985279431424e+00 -6.642413685329732198e-01 -7.552626108498404767e-01 2.242938659328074513e-01 0.000000000000000000e+00 0.000000000000000000e+00 0.000000000000000000e+00
1.000000000000000021e-02 -1.067656731456616992e+00 -8.750341317078388359e-01 1.456757441236076644e+00 2.350483313375739125e-01 -8.783085626994098227e-01 1.861201264759072271e-01 0.000000000000000000e+00 0.000000000000000000e+00 0.000000000000000000e+00
1.000000000000000021e-02 -1.708921194824688516e+00 1.217920727467443759e-01 -2.824346088562660895e-01 1.223370921733061834e-01 -9.511661787652219147e-01 1.095353227264402429e+00 0.000000000000000000e+00 0.000000000000000000e+00 0.000000000000000000e+00
1.000000000000000021e-02 3.308177088449102965e-01 2.061325632478867853e-01 6.105544681408974217e-01 -8.211911051259206396e-01 -1.560790346127674533e-04 -5.993500125078791152e-01 0.000000000000000000e+00 0.000000000000000000e+00 0.000000000000000000e+00
1.000000000000000021e-02 -1.179691661281622395e+00 -3.365256706945409237e-01 4.335922218607974887e-01 -1.680945455564336055e-01 -1.192523083664495998e+00 2.134359138142500056e-01 0.000000000000000000e+00 0.000000000000000000e+00 0.000000000000000000e+00
1.000000000000000021e-02 3.292488674726443687e-01 -9.800999498179563396e-01 -1.271275749612333694e+00 -4.385712363637230826e-01 1.011832981283983468e+00 -6.152505068836009450e-01 0.000000000000000000e+00 0.000000000000000000e+00 0.000000000000000000e+00
1.000000000000000021e-02 8.228596037546350717e-01 -4.913418425173743387e-01 5.148660886599604192e-02 7.432755695210331304e-01 -2.044560872993796130e-01 -2.420607932297129672e+00 0.000000000000000000e+00 0.000000000000000000e+00 0.000000000000000000e+00
1.000000000000000021e-02 9.134353549329139454e-01 -1.956655096409562755e-01 6.421468295806762594e-01 -1.797870856220404601e-01 9.711838795514178557e-02 -5.180747398261039693e-01 0.000000000000000000e+00 0.000000000000000000e+00 0.000000000000000000e+00
1.000000000000000021e-02 1.432334887713162253e-01 2.851355064634653602e-01 -1.597502330414999061e-01 2.164123152009359785e+00 -6.430795375227069122e-02 -1.972362151283757123e-02 0.000000000000000000e+00 0.000000000000000000e+00 0.000000000000000000e+00
1.000000000000000021e-02 8.931747512614025553e-01 -8.887130230167470391e-01 -2.423049628253457932e+00 -9.658583158196120122e-01 6.227437422690008662e-01 2.628416768354276400e-01 0.000000000000000000e+00 0.000000000000000000e+00 0.000000000000000000e+00
1.000000000000000021e-02 1.070969324263943756e+00 -8.019200270693619403e-01 7.857995954070688960e-01 -1.565161499112712074e+00 4.160001749197435039e-01 1.837836146230109324e-01 0.000000000000000000e+00 0.000000000000000000e+00 0.000000000000000000e+00
1.000000000000000021e-02 7.610403822941222973e-01 9.727651069788746385e-01 4.064611178727227103e-01 -1.031097899958834496e+00 -1.593870035250798178e+00 1.729481626538250660e+00 0.000000000000000000e+00 0.000000000000000000e+00 0.000000000000000000e+00
1.000000000000000021e-02 -1.171669533505500516e+00 5.096011991642471206e-02 -1.647732106170563871e+00 -1.590878610956356853e+00 -6.868786331654654909e-01 -2.075559373780590522e-01 0.000000000000000000e+00 0.000000000000000000e+00 0.000000000000000000e+00
1.000000000000000021e-02 8.035800445245560031e-01 -1.846875856877126187e+00 -9.149685043122043338e-01 -7.452254765849891660e-01 2.430096763073298638e-01 -3.070418699006991048e+00 0.000000000000000000e+00 0.000000000000000000e+00 0.000000000000000000e+00
1.000000000000000021e-02 7.170426934875804292e-01 -1.839609939403249683e+00 1.475824511390561478e+00 1.570011647754346873e+00 7.807311514812748099e-02 -1.351518492858598194e-02 0.000000000000000000e+00 0.000000000000000000e+00 0.000000000000000000e+00
1.000000000000000021e-02 1.097106069441033810e-01 8.794006819025139698e-01 -5.074041076943084372e-01 -1.665998563688117773e-01 -1.046983250654554221e+00 7.504403707698893422e-01 0.000000000000000000e+00 0.000000000000000000e+00 0.000000000000000000e+00
1.000000000000000021e-02 -4.101497624659672381e-02 1.883706087881159341e+00 -8.604533813003266696e-01 3.925773860560789474e-01 1.408202748339893784e+00 -9.598868169963034047e-01 0.000000000000000000e+00 0.000000000000000000e+00 0.000000000000000000e+00
1.000000000000000021e-02 -4.747378531142975033e-01 3.584341572090667394e-01 6.585726817382645537e-01 -7.434719158551966744e-01 5.376717257890911705e-01 7.097852355525438028e-01 0.000000000000000000e+00 0.000000000000000000e+00 0.000000000000000000e+00
1.000000000000000021e-02 -5.861387651572712576e-01 7.914713144521802191e-01 -5.859432165891572675e-01 1.576826824377073999e+00 -3.529470011468270330e-01 -2.828668893761125680e-02 0.000000000000000000e+00 0.000000000000000000e+00 0.000000000000000000e+00
1.000000000000000021e-02 6.782523126639500299e-01 -5.984515311903462198e-01 1.607532481275584457e+00 4.273826112150354017e-01 -4.306691498196244527e-01 -5.572089377291639806e-02 0.000000000000000000e+00 0.000000000000000000e+00 0.000000000000000000e+00
1.000000000000000021e-02 -2.153558959021417252e+00 1.634668124866680339e+00 1.107909278633777417e+00 3.280952822768111177e-01 -3.442380909200613015e-01 8.441221474038498318e-01 0.000000000000000000e+00 0.000000000000000000e+00 0.000000000000000000e+00
1.000000000000000021e-02 -5.531198491385529437e-01 -2.508792703405864910e-01 1.140357470149308661e+00 5.150777116535558697e-01 1.890347855071001781e-01 1.581897327964758571e-01 0.000000000000000000e+00 0.000000000000000000e+00 0.000000000000000000e+00
1.000000000000000021e-02 -7.225224295476803116e-01 1.128249848041935399e+00 4.370892019830177611e-01 1.175905153649742518e-01 9.242494070643489934e-01 -9.816212337662346687e-01 0.000000000000000000e+00 0.000000000000000000e+00 0.000000000000000000e+00
1.000000000000000021e-02 -1.776583449494750999e+00 -2.326434697118633932e-01 -5.340755644686522308e-01 7.906881688595639446e-01 -4.153352661453569294e-01 1.112989191472420550e-02 0.000000000000000000e+00 0.000000000000000000e+00 0.000000000000000000e+00
1.000000000000000021e-02 1.450156529759041080e+00 -1.011261821809407158e+00 4.166475583161921570e-01 1.360923641914827398e+00 -6.520336470635421655e-01 2.436837761817716441e-01 0.000000000000000000e+00 0.000000000000000000e+00 0.000000000000000000e+00
1.000000000000000021e-02 1.102328675206498132e-01 5.267886332038849151e-01 -4.584587408902732197e-01 8.305097313878706533e-01 4.618992681594088490e-01 6.977988132213294170e-01 0.000000000000000000e+00 0.000000000000000000e+00 0.000000000000000000e+00
1.000000000000000021e-02 1.083465051663758061e+00 -3.613824735047602155e-01 1.169872578064523827e+00 6.569861188810229846e-01 -1.396326416466115550e+00 8.106194251337581758e-01 0.000000000000000000e+00 0.000000000000000000e+00 0.000000000000000000e+00
1.000000000000000021e-02 1.811503805815346757e+00 1.749198481448243747e+00 -2.370272789177782502e-01 2.329649200148714572e-01 -3.737714566951962913e-01 2.862969723334227723e+00 0.000000000000000000e+00 0.000000000000000000e+00 0.000000000000000000e+00
1.000000000000000021e-02 2.075038448530951429e-01 -4.828892055872722744e-01 5.944534388798701219e-01 -1.318477771977000779e-01 -1.042692643528525753e+00 -1.567048594007201423e+00 0.000000000000000000e+00 0.000000000000000000e+00 0.000000000000000000e+00
1.000000000000000021e-02 -1.073996367582234823e+00 5.775059429801511213e-01 7.790289454317772533e-02 -1.307150145696452492e+00 -1.062686017314265374e+00 -1.577586501809722597e+00 0.000000000000000000e+00 0.000000000000000000e+00 0.000000000000000000e+00
1.000000000000000021e-02 -7.142417609484077445e-01 1.070632022244645043e+00 1.161219663110990563e+00 1.919648845357952549e+00 -1.285489431690195250e+00 -4.965458246343353033e-02 0.000000000000000000e+00 0.000000000000000000e+00 0.000000000000000000e+00
1.000000000000000021e-02 -2.168169672550367189e+00 1.002792490163894934e+00 1.737719487695023268e+00 -1.779651106850316022e+00 1.830955365308379879e+00 -1.192611588239546272e+00 0.000000000000000000e+00 0.000000000000000000e+00 0.000000000000000000e+00
1.000000000000000021e-02 4.514422874969111765e-01 -1.985701954185244700e-01 -7.598453883982839718e-01 -6.208569536035526415e-01 -2.608401535551187478e-01 1.003726725780631351e-02 0.000000000000000000e+00 0.000000000000000000e+00 0.000000000000000000e+00
1.000000000000000021e-02 -1.529111471685641543e+00 -5.974700031808333200e-03 -5.478735871143933928e-02 4.211837780846270918e-01 1.121792899021526457e+00 2.457844228353160965e+00 0.000000000000000000e+00 0.000000000000000000e+00 0.000000000000000000e+00
1.000000000000000021e-02 6.793281500857590860e-01 -1.370950234476751239e+00 1.172131666106861703e+00 -1.825594952456588982e-01 8.449177919639389023e-02 -1.766460049466607840e+00 0.000000000000000000e+00 0.000000000000000000e+00 0.000000000000000000e+00
1.000000000000000021e-02 -1.076977816427791668e+00 -1.074187998004835221e+00 -8.091328497276553122e-01 1.267075377219986532e+00 1.422767093239737157e+00 6.780436755787242475e-01 0.000000000000000000e+00 0.000000000000000000e+00 0.000000000000000000e+00
1.000000000000000021e-02 -7.457104733719156497e-01 3.553635811282282453e-01 1.951272581485170354e+00 -5.573765744493625052e-01 1.998321574712528526e-01 1.504284022118761888e+00 0.000000000000000000e+00 0.000000000000000000e+00 0.000000000000000000e+00
1.000000000000000021e-02 -3.638660212481728551e-01 -1.957025510117467726e-01 -1.996678184202068884e+00 6.073055269877702944e-01 1.289846203873895591e-01 -1.550621545039953197e+00 0.000000000000000000e+00 0.000000000000000000e+00 0.000000000000000000e+00
1.000000000000000021e-02 4.700535122032202251e-01 8.305698973321509193e-01 1.492307304655535516e+00 -9.046645589273398791e-01 3.398282861190541904e-01 6.281643974312087209e-02 0.000000000000000000e+00 0.000000000000000000e+00 0.000000000000000000e+00
1.000000000000000021e-02 3.938567143704964635e-01 -6.820689354447172503e-01 -5.109128500842765597e-01 1.884865287774822651e+00 -1.310730506001591911e+00 9.979574328096740832e-01 0.000000000000000000e+00 0.000000000000000000e+00 0.000000000000000000e+00
1.000000000000000021e-02 5.222117189861235076e-01 -1.400281530073238301e+00 2.450235432796588897e-01 1.981379560306934628e+00 4.513678612176931781e-01 -1.259669751253921222e+00 0.000000000000000000e+00 0.000000000000000000e+00 0.000000000000000000e+00
1.000000000000000021e-02 2.788158186627449076e-01 1.448807266789299275e+00 -1.029316185440708534e-02 9.930316649702584098e-01 7.680950216201247738e-01 -1.189992723741513325e+00 0.000000000000000000e+00 0.000000000000000000e+00 0.000000000000000000e+00
1.000000000000000021e-02 2.279782062708091139e+00 -7.822156706478783361e-02 -4.671126973367819013e-01 -8.356955881796918062e-01 2.018326196456984523e+00 -5.035761389766919560e-01 0.000000000000000000e+00 0.000000000000000000e+00 0.000000000000000000e+00
1.000000000000000021e-02 -1.010968754558912552e+00 -1.779742297140838092e+00 1.200207536575166045e-01 -9.081611987426975174e-01 -2.266809581243279248e-01 6.189148308694737421e-01 0.000000000000000000e+00 0.000000000000000000e+00 0.000000000000000000e+00
1.000000000000000021e-02 -4.190463820190265531e-02 -1.722775294987425321e-01 -3.238221013492358913e-01 -1.457645022146576430e-01 5.441737633247679257e-02 -4.004165720076457990e-01 0.000000000000000000e+00 0.000000000000000000e+00 0.000000000000000000e+00
1.000000000000000021e-02 1.329617849718756295e+00 2.063036620237516328e+00 1.411198172927990324e+00 1.667815719050100176e+00 7.651627699985561470e-01 -1.119527310644354179e+00 0.000000000000000000e+00 0.000000000000000000e+00 0.000000000000000000e+00
1.000000000000000021e-02 -3.987288095682570144e-01 1.238880503774196090e-01 5.421022166209475968e-01 4.744695920859349214e-01 -1.958514284002659533e-01 -1.442066807278705953e+00 0.000000000000000000e+00 0.000000000000000000e+00 0.000000000000000000e+00
1.000000000000000021e-02 8.385075438580308349e-01 -5.416796715324379008e-01 -5.140831680890700639e-02 -2.346769924647709171e-01 3.376600058955666062e-01 -1.126108286002815984e+00 0.000000000000000000e+00 0.000000000000000000e+00 0.000000000000000000e+00
1.000000000000000021e-02 -4.061184919403728610e-01 2.755699396821654767e-01 4.129451966537671659e-01 -1.520605277784351284e+00 -1.302290906773964529e+00 5.920596010997144359e-02 0.000000000000000000e+00 0.000000000000000000e+00 0.000000000000000000e+00
1.000000000000000021e-02 1.635970187675853227e+00 3.274926440557011098e-01 -7.229543209858626529e-01 -7.782101401738166224e-01 5.940695465899314964e-01 -1.198508610456538337e+00 0.000000000000000000e+00 0.000000000000000000e+00 0.000000000000000000e+00
1.000000000000000021e-02 -9.401981246319653929e-01 1.634379281017170893e+00 -7.102311296237261429e-01 5.488950126249022565e-01 -1.546416485284379805e-01 -3.812363070453063663e-01 0.000000000000000000e+00 0.000000000000000000e+00 0.000000000000000000e+00
1.000000000000000021e-02 1.531352582884028424e+00 3.192031799955288296e-01 -1.217443483073203270e+00 -1.567782464920684793e-01 -9.033878546793986386e-01 -6.483021054543545991e-02 0.000000000000000000e+00 0.000000000000000000e+00 0.000000000000000000e+00
1.000000000000000021e-02 6.716006486286829613e-01 1.081267159073559858e+00 -9.253712600410918254e-01 -3.739829982663044339e-01 -1.035794600507293772e+00 -6.545915139722061071e-02 0.000000000000000000e+00 0.000000000000000000e+00 0.000000000000000000e+00
1.000000000000000021e-02 7.237697276616562592e-01 7.770402006813066365e-01 -1.352702964093900617e-02 -1.192486940887685698e+00 -1.391220738596226303e+00 -1.380320016264623195e+00 0.000000000000000000e+00 0.000000000000000000e+00 0.000000000000000000e+00
1.000000000000000021e-02 1.377655878824622704e+00 -1.070872060303172724e+00 5.334666373045628962e-01 1.603167419287127249e+00 9.135378269166983811e-01 -1.124910409098020647e+00 0.000000000000000000e+00 0.000000000000000000e+00 0.000000000000000000e+00
1.000000000000000021e-02 -1.060632851046678038e+00 2.464772580308843830e-01 -1.609092590794810318e-01 -1.551238101189885032e+00 8.608866493059066372e-01 -4.320693210220061253e-02 0.000000000000000000e+00 0.000000000000000000e+00 0.000000000000000000e+00
1.000000000000000021e-02 2.183002087784548184e+00 5.346564994022094952e-01 5.053427491317787762e-02 1.033744323892140382e-01 6.303902427588864432e-01 2.942901058453969640e-02 0.000000000000000000e+00 0.000000000000000000e+00 0.000000000000000000e+00
1.000000000000000021e-02 -8.263672730895854635e-01 -6.205148438673854239e-01 -1.096140668374435911e+00 1.252393912783277719e+00 1.228906342209015179e+00 -9.180425217628618295e-01 0.000000000000000000e+00 0.000000000000000000e+00 0.000000000000000000e+00
1.000000000000000021e-02 5.435551603883026495e-01 1.289015486890538575e+00 -1.446438824831693060e+00 7.053047636480274107e-01 -2.514843268284179811e-01 1.369112047977979918e+00 0.000000000000000000e+00 0.000000000000000000e+00 0.000000000000000000e+00
1.000000000000000021e-02 3.704248865540305524e-01 -1.102536532806345004e+00 -2.608133378945230452e-01 -4.443417297987761194e-01 4.715251687194916830e-01 -2.082556394124832344e-01 0.000000000000000000e+00 0.000000000000000000e+00 0.000000000000000000e+00
1.000000000000000021e-02 5.135487507684961539e-01 -1.602387632744533885e+00 -3.941076993499076364e-01 -4.675441250946037464e-01 -2.445214303110048726e-01 4.351686103920106297e-02 0.000000000000000000e+00 0.000000000000000000e+00 0.000000000000000000e+00
1.000000000000000021e-02 1.972940215885243820e-01 7.792165487407693991e-01 -1.408903647679461191e+00 -6.891636701534625820e-01 -6.139434001219179482e-02 -7.641929589075201479e-01 0.000000000000000000e+00 0.000000000000000000e+00 0.000000000000000000e+00
1.000000000000000021e-02 3.465010374692502615e-01 2.726378583040154346e-01 -8.803450534859512677e-01 6.279603985378707787e-01 -9.894585655888356035e-01 -1.283445755239078778e+00 0.000000000000000000e+00 0.000000000000000000e+00 0.000000000000000000e+00
1.000000000000000021e-02 -1.796633699281519059e-01 -1.873265168961569138e+00 -5.326818700752717906e-01 -8.293511556383745820e-01 -1.652793021605490908e+00 9.295542883221721286e-01 0.000000000000000000e+00 0.000000000000000000e+00 0.000000000000000000e+00
1.000000000000000021e-02 8.630636901469218580e-01 1.891251808782762334e+00 4.932702884162063484e-01 -4.287910586730633300e-01 -4.889234900222430014e-01 5.539293514503512705e-01 0.000000000000000000e+00 0.000000000000000000e+00 0.000000000000000000e+00
1.000000000000000021e-02 1.574560134147845680e+00 1.174497018279941463e+00 -3.438924337414094312e-01 -1.495359326171437075e+00 -3.545186526025802254e-02 -3.658493797062436492e-01 0.000000000000000000e+00 0.000000000000000000e+00 0.000000000000000000e+00
1.000000000000000021e-02 -8.900780652559362460e-01 1.480370415201569756e+00 -9.853323914068069511e-01 2.774848392683362253e-01 1.172817567143868311e+00 -2.109160515716304918e+00 0.000000000000000000e+00 0.000000000000000000e+00 0.000000000000000000e+00
1.000000000000000021e-02 6.596532334524725094e-01 3.436388010574322749e-01 -5.434319125035005360e-01 1.751673585874828354e-01 -7.087978820377715400e-04 2.110819946087411303e+00 0.000000000000000000e+00 0.000000000000000000e+00 0.000000000000000000e+00
1.000000000000000021e-02 8.454193728842340771e-01 -1.211455227623374986e+00 -1.672952403622999240e+00 1.707398593291748146e+00 2.615726504215423631e+00 1.893479537983476790e+00 0.000000000000000000e+00 0.000000000000000000e+00 0.000000000000000000e+00
1.000000000000000021e-02 -1.076819690050605516e+00 1.768894864627765129e+00 -4.123237329357735681e-01 9.649419330458941513e-01 1.176055179615505653e+00 -1.479261648627913539e+00 0.000000000000000000e+00 0.000000000000000000e+00 0.000000000000000000e+00
1.000000000000000021e-02 1.048879164202169090e+00 1.260012740876167298e-03 1.400540727606043867e-01 1.997795581772865980e-01 -6.139659635378611480e-01 -7.846944820735513026e-01 0.000000000000000000e+00 0.000000000000000000e+00 0.000000000000000000e+00
1.000000000000000021e-02 1.294326040035164160e+00 8.820007177550109878e-02 -6.967440055775511731e-02 3.912602546424426286e-01 -3.271993175540247600e-01 -3.817917390083579998e-01 0.000000000000000000e+00 0.000000000000000000e+00 0.000000000000000000e+00
1.000000000000000021e-02 -6.354992469668787614e-01 -1.582581374706733213e+00 -1.466448977298455025e+00 -8.169827656165271623e-01 2.024573168231305897e-01 -1.185208649236694445e+00 0.000000000000000000e+00 0.000000000000000000e+00 0.000000000000000000e+00
1.000000000000000021e-02 -1.287762281633640926e+00 -8.779172539417846588e-01 -5.404640393676524851e-02 6.011706801044162107e-01 2.414184003822863911e+00 6.742906360334812721e-01 0.000000000000000000e+00 0.000000000000000000e+00 0.000000000000000000e+00
1.000000000000000021e-02 5.080074719196320254e-01 -7.437020659718964755e-01 -2.731486016270889272e-01 -8.984587312444189955e-01 9.860357032671542843e-01 -8.642724969495838572e-01 0.000000000000000000e+00 0.000000000000000000e+00 0.000000000000000000e+00
1.000000000000000021e-02 4.349245890444393692e-01 6.094955171613987144e-01 -6.321584438269604034e-01 4.080768406266325754e-01 1.237857997812014554e+00 2.935305067261101630e+00 0.000000000000000000e+00 0.000000000000000000e+00 0.000000000000000000e+00
1.000000000000000021e-02 -1.023390412998484100e+00 1.665407162570887278e+00 4.698684014118663654e-01 1.033291559509958324e+00 -1.280718931390913973e+00 -2.603894677240689015e-01 0.000000000000000000e+00 0.000000000000000000e+00 0.000000000000000000e+00
1.000000000000000021e-02 -4.900068012335961343e-01 1.075420530061143243e+00 -1.796670925055926960e+00 1.099347025565428293e+00 -1.189325344360633308e+00 2.423557042547782037e-01 0.000000000000000000e+00 0.000000000000000000e+00 0.000000000000000000e+00
1.000000000000000021e-02 1.198411868641148015e+00 5.528711766312229825e-01 -4.907100338680395746e-01 1.696201576628662000e-01 7.046349053010059205e-01 1.515782215731001692e+00 0.000000000000000000e+00 0.000000000000000000e+00 0.000000000000000000e+00
1.000000000000000021e-02 3.121159766067094915e-02 -1.135162958967885105e+00 -2.640183373487900997e-01 -6.813211096589566473e-02 2.352283677542340579e-01 2.106764904658902371e-01 0.000000000000000000e+00 0.000000000000000000e+00 0.000000000000000000e+00
1.000000000000000021e-02 -1.535760179401367109e+00 -1.558075365599308482e+00 1.621620269850751583e+00 4.019921609577786215e-01 2.364196399170548080e-01 7.062498487519537349e-01 0.000000000000000000e+00 0.000000000000000000e+00 0.000000000000000000e+00
1.000000000000000021e-02 1.513040568133978026e+00 -1.467232468330314198e-02 -1.138120358673098353e+00 1.310222641825067313e+00 3.900246297527816541e-02 -3.771755130962580749e-01 0.000000000000000000e+00 0.000000000000000000e+00 0.000000000000000000e+00
1.000000000000000021e-02 -4.848068844741120764e-01 -4.484680059538320718e-01 -7.530171677814033460e-02 9.553882032997214058e-01 7.054261817226751274e-01 -1.660230401052797400e-01 0.000000000000000000e+00 0.000000000000000000e+00 0.000000000000000000e+00
1.000000000000000021e-02 -2.652081997367525257e-01 1.054348409227104044e+00 1.454647699167266106e+00 7.862534882949550052e-01 -9.743514161070938595e-01 -1.169003553574015974e+00 0.000000000000000000e+00 0.000000000000000000e+00 0.000000000000000000e+00
1.000000000000000021e-02 1.147156436191896889e+00 4.778446548123695820e-02 7.321973898363410838e-01 1.287060818939908424e+00 1.897208109563710332e+00 -3.396933262570350776e-01 0.000000000000000000e+00 0.000000000000000000e+00 0.000000000000000000e+00
1.000000000000000021e-02 9.833496222453214086e-01 -3.010026153770933299e-01 1.236032993480617348e+00 4.386301040962246600e-01 -1.537080827607360423e+00 -2.009899918826848708e+00 0.000000000000000000e+00 0.000000000000000000e+00 0.000000000000000000e+00
1.000000000000000021e-02 1.547636795092199868e-01 8.718747435043270322e-01 5.030068699548471134e-01 3.995544149070785409e-03 -1.959594922405320627e+00 4.601366397605113900e-01 0.000000000000000000e+00 0.000000000000000000e+00 0.000000000000000000e+00
1.000000000000000021e-02 -2.949309623415808379e-01 -6.865125599795626199e-01 9.904671019345313576e-01 -1.164238806536068038e+00 6.495635425544923347e-01 -5.965204659310131552e-01 0.000000000000000000e+00 0.000000000000000000e+00 0.000000000000000000e+00
1.000000000000000021e-02 -1.953009021159060499e+00 4.640968024464712793e-01 5.326541183292662351e-01 -3.719553930627771399e-01 5.199202466800406652e-01 -1.074902072414982257e+00 0.000000000000000000e+00 0.000000000000000000e+00 0.000000000000000000e+00
1.000000000000000021e-02 1.125383641394009482e+00 -6.480981194186842265e-01 5.016049431897151578e-01 -5.821340631467950555e-01 -4.206263073797184004e-01 8.869457403370349935e-01 0.000000000000000000e+00 0.000000000000000000e+00 0.000000000000000000e+00
1.000000000000000021e-02 -6.146562817792156075e-01 8.868351199836546073e-01 -6.998133163660658074e-01 -1.101714965563450610e+00 -1.374682810576749903e+00 7.011072075893909350e-01 0.000000000000000000e+00 0.000000000000000000e+00 0.000000000000000000e+00
1.000000000000000021e-02 4.841260048126682092e-01 -5.621579415682093073e-01 -8.096251888770111815e-02 1.637957438755642370e+00 3.400681783048602885e-02 1.407349048185104534e+00 0.000000000000000000e+00 0.000000000000000000e+00 0.000000000000000000e+00
1.000000000000000021e-02 -1.348310286120408263e-01 1.863350667629922741e-01 2.669151312303839063e+00 -2.252839309006265944e-01 1.474083515176195736e+00 -8.420458241690731427e-01 0.000000000000000000e+00 0.000000000000000000e+00 0.000000000000000000e+00
1.000000000000000021e-02 -1.847904720989961724e+00 -5.610090218161619680e-01 2.077012720881507235e+00 -1.094549824194492205e+00 4.503202197489311609e-02 1.070594892747140092e-01 0.000000000000000000e+00 0.000000000000000000e+00 0.000000000000000000e+00
1.000000000000000021e-02 -7.145377802192663941e-01 1.463786732086881925e-01 -5.997594702989580417e-01 1.245085234161063648e+00 -1.581681194709697813e+00 -2.107847119998946250e-01 0.000000000000000000e+00 0.000000000000000000e+00 0.000000000000000000e+00
1.000000000000000021e-02 -5.798118129785603259e-01 1.298627856513224543e+00 -6.639598860303895789e-01 1.304136184249856945e-01 -3.475910881091954230e-01 1.544365649554424180e-01 0.000000000000000000e+00 0.000000000000000000e+00 0.000000000000000000e+00
1.000000000000000021e-02 3.387700986294596706e-01 2.542051562253044850e-01 -9.931540906283030656e-01 -1.179688266273123842e+00 7.666269971471922906e-01 -3.795193635523454456e-01 0.000000000000000000e+00 0.000000000000000000e+00 0.000000000000000000e+00
1.000000000000000021e-02 -2.233619946413153423e-01 1.059591499627473565e+00 1.824396920019302648e+00 2.290593183636790986e-01 -5.051130399934168347e-01 4.046445728881533643e-01 0.000000000000000000e+00 0.000000000000000000e+00 0.000000000000000000e+00
1.000000000000000021e-02 4.937900437039852153e-01 4.625694582450454728e-01 -1.534362216477099139e+00 5.721482975976620589e-01 -8.338343608156146836e-01 -7.379453140012192103e-01 0.000000000000000000e+00 0.000000000000000000e+00 0.000000000000000000e+00
1.000000000000000021e-02 6.595058370328195085e-01 -2.248853812959016096e+00 -2.611510849619779751e-01 8.511633559545622729e-02 -4.116112436170597522e-01 -1.612086834398872848e-01 0.000000000000000000e+00 0.000000000000000000e+00 0.000000000000000000e+00
1.000000000000000021e-02 -1.764728428875004806e-01 -2.772658477690287393e-01 -5.486117903024696485e-01 1.118185813287728703e+00 4.569840592729654261e-01 1.284885476358009981e+00 0.000000000000000000e+00 0.000000000000000000e+00 0.000000000000000000e+00
1.000000000000000021e-02 -7.773872034836523115e-01 -8.318650323090053256e-01 1.110400242164523710e-01 -8.461428866015284767e-01 -7.453023274234258366e-01 -1.823523976756485920e-01 0.000000000000000000e+00 0.000000000000000000e+00 0.000000000000000000e+00
1.000000000000000021e-02 1.355533234047059610e+00 -8.178105899272508639e-01 7.899219728581751143e-01 -5.530956181003383598e-01 -1.082210323146653302e-01 -9.387003536309213025e-01 0.000000000000000000e+00 0.000000000000000000e+00 0.000000000000000000e+00
1.000000000000000021e-02 -1.205513825090184676e+00 -4.055433549842019092e-01 1.786461299165719996e-01 -1.265896862954605240e-01 2.717107352604106740e-01 1.286344993889369848e+00 0.000000000000000000e+00 0.000000000000000000e+00 0.000000000000000000e+00
1.000000000000000021e-02 -4.473503242373010058e-02 -5.712837938835739759e-01 -2.001526676734417975e+00 6.424315228594368321e-01 1.106824702398336635e+00 1.613589886769317472e+00 0.000000000000000000e+00 0.000000000000000000e+00 0.000000000000000000e+00
1.000000000000000021e-02 2.019156696239015891e-01 3.017521068745616653e-01 1.943227607549583125e+00 1.098136417692942637e-02 -1.083551968066894799e+00 8.194169389214647770e-02 0.000000000000000000e+00 0.000000000000000000e+00 0.000000000000000000e+00
1.000000000000000021e-02 7.341844409706946850e-01 -1.281482207296003484e+00 2.687993085946181748e-02 4.835383103946801209e-02 -6.381464528577739381e-01 1.702505944767749080e+00 0.000000000000000000e+00 0.000000000000000000e+00 0.000000000000000000e+00
1.000000000000000021e-02 -1.722982397239366525e+00 -1.173735137631541470e+00 -1.278415400677268332e+00 8.354962501738963931e-01 -2.554719730610263140e-01 4.908574449867671441e-01 0.000000000000000000e+00 0.000000000000000000e+00 0.000000000000000000e+00
1.000000000000000021e-02 -1.585418127176406733e-01 -1.117312515583575250e+00 2.153884170707893453e-01 -2.301128797515913371e-01 9.070387168790520205e-01 5.723990407239515354e-01 0.000000000000000000e+00 0.000000000000000000e+00 0.000000000000000000e+00
1.000000000000000021e-02 -2.104975537345028069e+00 -2.102912172594415680e-02 -6.071065472916317152e-01 -1.258640639243663595e-01 2.784149956943992796e-02 -1.788279785203800848e-02 0.000000000000000000e+00 0.000000000000000000e+00 0.000000000000000000e+00
1.000000000000000021e-02 1.258136886445055502e+00 -9.727504045035987312e-01 -8.079067437218918624e-01 5.803050162163587988e-02 -1.608657617753409541e+00 1.021473615190098272e+00 0.000000000000000000e+00 0.000000000000000000e+00 0.000000000000000000e+00
1.000000000000000021e-02 4.056264358909180134e-01 -1.177154537828443814e+00 1.352390460294209173e+00 -7.284095551052894857e-01 2.873543487143494501e-01 -8.256788882544587871e-01 0.000000000000000000e+00 0.000000000000000000e+00 0.000000000000000000e+00
1.000000000000000021e-02 1.594906126353641929e+00 -2.421216774827547949e-02 1.597305565390897131e-01 2.835541088372066643e+00 7.895509598586470945e-01 3.124987379448490588e-01 0.000000000000000000e+00 0.000000000000000000e+00 0.000000000000000000e+00
1.000000000000000021e-02 -9.747288973528763778e-01 8.486256065486275091e-02 -3.014578929372899174e-01 -8.656186136068655390e-01 9.553301836597222207e-01 1.717720306319481804e-01 0.000000000000000000e+00 0.000000000000000000e+00 0.000000000000000000e+00
1.000000000000000021e-02 -1.576279147899715793e+00 -2.207928698641202114e+00 8.415413062048844317e-01 -9.264071298196208115e-01 1.175531669980755645e+00 -8.685061400908766771e-02 0.000000000000000000e+00 0.000000000000000000e+00 0.000000000000000000e+00
1.000000000000000021e-02 5.560939335064446487e-01 -3.511883619755372665e-01 -2.182800547915567102e-01 -7.519745800209615139e-01 9.270272433720917471e-01 -1.456185443530319257e-01 0.000000000000000000e+00 0.000000000000000000e+00 0.000000000000000000e+00
1.000000000000000021e-02 -1.067583411021146622e+00 1.089326423408372602e+00 2.014807163390735512e-01 1.185996106378571335e+00 1.463456937123968737e+00 -2.134076698844404596e-01 0.000000000000000000e+00 0.000000000000000000e+00 0.000000000000000000e+00
1.000000000000000021e-02 3.324076653610544274e-02 1.358526201119632404e+00 2.388298619596557870e+00 1.087914755696162361e+00 1.159670434700505126e+00 3.867460586924833521e-01 0.000000000000000000e+00 0.000000000000000000e+00 0.000000000000000000e+00
1.000000000000000021e-02 -5.566114344930485069e-01 -1.133433307349918095e+00 2.303370732130660681e-01 1.008642573237692908e+00 1.336705352221396748e+00 -9.517983993285916711e-01 0.000000000000000000e+00 0.000000000000000000e+00 0.000000000000000000e+00
1.000000000000000021e-02 1.227598980137114548e+00 1.005608331287975443e-01 -1.430172574828920018e+00 -2.058853532942095832e+00 -3.582237065341114524e-01 -8.557838382842164471e-01 0.000000000000000000e+00 0.000000000000000000e+00 0.000000000000000000e+00
1.000000000000000021e-02 -1.228028779075328314e-01 -1.013652695391693559e+00 -8.069907909581806038e-01 -1.195613484378690528e+00 1.570152398504074398e-01 -1.305981306410574749e+00 0.000000000000000000e+00 0.000000000000000000e+00 0.000000000000000000e+00
1.000000000000000021e-02 1.526001565893393863e+00 -9.429664787414522298e-01 -1.153035658030672428e+00 -9.141858734501918660e-01 -1.894877587571434652e-01 -1.467534931366250683e+00 0.000000000000000000e+00 0.000000000000000000e+00 0.000000000000000000e+00
1.000000000000000021e-02 3.577635476783838087e-01 -1.137629137170112825e+00 -9.787677667385805691e-01 1.248922605145756703e+00 1.530963672213734750e+00 8.194236355379015679e-02 0.000000000000000000e+00 0.000000000000000000e+00 0.000000000000000000e+00
1.000000000000000021e-02 2.880850818801931723e+00 -6.182942987571080629e-01 -1.513615853972313907e+00 5.558253392127147086e-01 3.866929358508539583e-01 -9.782563465689037008e-01 0.000000000000000000e+00 0.000000000000000000e+00 0.000000000000000000e+00
1.000000000000000021e-02 -2.014191188153912071e-01 -8.206274449968300466e-01 -1.568851667595519972e+00 1.515640259329050499e-01 -1.988324639519453596e+00 -1.027752384072133873e+00 0.000000000000000000e+00 0.000000000000000000e+00 0.000000000000000000e+00
1.000000000000000021e-02 -3.690191442382849685e-01 -1.899245050034918947e+00 1.755329346802755541e+00 8.055378221959013096e-01 1.067427482227921720e-01 -1.118276111854961952e-01 0.000000000000000000e+00 0.000000000000000000e+00 0.000000000000000000e+00
1.000000000000000021e-02 6.223531959879020636e-01 1.295367159453382433e+00 7.701941937907912372e-01 4.370063865556770774e-03 2.222635986073660808e-01 1.690483335159988831e+00 0.000000000000000000e+00 0.000000000000000000e+00 0.000000000000000000e+00
1.000000000000000021e-02 -7.757948849723281803e-01 -7.983686505434127723e-01 7.558114178453370635e-02 -1.612384001636129049e-01 -6.895661484313653222e-01 -2.381874980648153173e+00 0.000000000000000000e+00 0.000000000000000000e+00 0.000000000000000000e+00
1.000000000000000021e-02 3.023935420914063976e-01 -9.709332682854203700e-01 6.905296755667632569e-01 2.068221093152984233e-02 -5.374957166990798063e-01 6.375768667012472468e-01 0.000000000000000000e+00 0.000000000000000000e+00 0.000000000000000000e+00
1.000000000000000021e-02 8.633215958933802003e-01 4.880411205227238036e-01 1.385058471991549522e+00 9.590727093361257616e-01 1.617964968660121627e+00 9.450347759621198218e-01 0.000000000000000000e+00 0.000000000000000000e+00 0.000000000000000000e+00
1.000000000000000021e-02 -9.547619194499097350e-01 8.686981459583977827e-01 -1.506368491242570107e-01 1.514361133916631297e-01 1.261350990040590370e+00 7.304380064783563831e-02 0.000000000000000000e+00 0.000000000000000000e+00 0.000000000000000000e+00
1.000000000000000021e-02 -1.145815568056770761e+00 1.373972016702947219e+00 9.196533058031162167e-01 1.567121902232135877e+00 -1.049894973661874564e+00 -1.623844144750481000e+00 0.000000000000000000e+00 0.000000000000000000e+00 0.000000000000000000e+00
1.000000000000000021e-02 1.060254840829314427e+00 -2.410193858685870438e+00 -1.135252227359029975e+00 1.537394921007892767e+00 -8.680017634395968684e-02 -1.224427988358163688e+00 0.000000000000000000e+00 0.000000000000000000e+00 0.000000000000000000e+00
1.000000000000000021e-02 2.267635284500824355e-01 6.842286880001438587e-02 -4.498310930972206911e-01 5.356441100009503575e-01 1.274372962291911326e+00 1.395636792409998272e-01 0.000000000000000000e+00 0.000000000000000000e+00 0.000000000000000000e+00
1.000000000000000021e-02 -1.372307105938093408e-01 -1.076367047478011818e-01 6.599347038762494178e-01 2.878838336349686666e-01 -6.214131974738054676e-02 -1.781896157880492604e+00 0.000000000000000000e+00 0.000000000000000000e+00 0.000000000000000000e+00
1.000000000000000021e-02 -5.900213624254209144e-01 4.187941166844313390e-01 1.416077244907614441e+00 2.106104752260543389e+00 -5.785430296720970311e-01 3.571063816047780337e-01 0.000000000000000000e+00 0.000000000000000000e+00 0.000000000000000000e+00
1.000000000000000021e-02 -9.642095108105889212e-01 7.960936565486506633e-02 1.534890790657427617e+00 5.038166550317777492e-01 -1.309393772251172150e+00 -8.086760926575473629e-01 0.000000000000000000e+00 0.000000000000000000e+00 0.000000000000000000e+00
1.000000000000000021e-02 1.059439732540153001e+00 -5.505667018255731016e-01 6.981907669354865398e-01 -2.625145301868459513e-01 7.782750336841190997e-01 1.638132084966829272e+00 0.000000000000000000e+00 0.000000000000000000e+00 0.000000000000000000e+00
1.000000000000000021e-02 -5.632166945203234132e-01 -3.008761972569812815e-01 -6.589872815978869980e-02 6.085823654559198159e-01 5.194611046997126280e-01 9.079641665337282452e-01 0.000000000000000000e+00 0.000000000000000000e+00 0.000000000000000000e+00
1.000000000000000021e-02 1.500465467498117267e+00 -9.447087116801144990e-01 2.607136947282115980e+00 -2.493388520352394014e-02 -8.304337408251866171e-01 3.703631868398420401e-01 0.000000000000000000e+00 0.000000000000000000e+00 0.000000000000000000e+00
1.000000000000000021e-02 -9.693376472464904081e-01 8.378983280904486186e-01 1.015227351609970130e+00 7.395182708647680681e-01 7.797191989213592134e-01 8.497348949194905021e-01 0.000000000000000000e+00 0.000000000000000000e+00 0.000000000000000000e+00
1.000000000000000021e-02 -4.139719566542109930e-01 -1.333944288665662281e+00 3.401201382920372718e-02 -1.379594958732947019e+00 3.007057546260955005e-01 1.577658751622047939e+00 0.000000000000000000e+00 0.000000000000000000e+00 0.000000000000000000e+00
1.000000000000000021e-02 -5.725073537922269473e-01 -2.374674208432440425e-01 3.976337483818759289e-01 1.908754744145487736e-01 8.711984254843266884e-01 1.520444129312222836e+00 0.000000000000000000e+00 0.000000000000000000e+00 0.000000000000000000e+00
1.000000000000000021e-02 1.268829305556121501e+00 -4.613854484534313793e-01 -5.049067334053648493e-01 -6.629239597923461957e-01 2.043351974595354559e+00 -8.213512557357499633e-01 0.000000000000000000e+00 0.000000000000000000e+00 0.000000000000000000e+00
1.000000000000000021e-02 -1.292348203832357045e+00 3.839806548249114493e-01 6.990176946633860355e-01 -2.987264842501718975e-01 -4.409141059294963139e-01 -4.520935984769842708e-01 0.000000000000000000e+00 0.000000000000000000e+00 0.000000000000000000e+00
1.000000000000000021e-02 -5.482367251826671950e-01 1.323743608575300934e+00 7.472749918927740209e-01 -1.889716391061467549e-02 -5.301836766440671811e-01 -3.704522553141778030e-01 0.000000000000000000e+00 0.000000000000000000e+00 0.000000000000000000e+00
1.000000000000000021e-02 -1.926939219917346291e-01 -5.145720253637692254e-01 -1.727647252489914020e+00 1.951360925340307251e+00 3.093063422363863668e-01 7.507634479319993392e-01 0.000000000000000000e+00 0.000000000000000000e+00 0.000000000000000000e+00
1.000000000000000021e-02 -7.972319574638322415e-01 -7.399132856428037863e-01 -1.596269197695058484e+00 5.508558043531379678e-01 -7.273336823863008060e-01 1.111448909868457957e-01 0.000000000000000000e+00 0.000000000000000000e+00 0.000000000000000000e+00
1.000000000000000021e-02 -4.357740656503710786e-01 6.326065998832466342e-01 1.519545497862140992e+00 -4.164465285318644239e-01 9.094904003212413157e-02 -2.626967153470149530e+00 0.000000000000000000e+00 0.000000000000000000e+00 0.000000000000000000e+00
1.000000000000000021e-02 -1.397408558277798418e+00 -5.706848932909829308e-01 -1.167193717092387617e+00 7.257595478095772989e-01 -4.552052913821958979e-01 -3.233757487863233027e-01 0.000000000000000000e+00 0.000000000000000000e+00 0.000000000000000000e+00
1.000000000000000021e-02 9.439840713523761639e-01 -6.052318377145207012e-02 -1.105265612438756984e+00 2.018698747345323286e-01 -2.470460913152518201e-01 -1.037626514641166509e+00 0.000000000000000000e+00 0.000000000000000000e+00 0.000000000000000000e+00
1.000000000000000021e-02 1.448413299085541173e+00 -1.296374384009997716e+00 1.844147630062033860e+00 1.651248961892238354e+00 -1.793978340329342558e+00 2.055391104398946123e+00 0.000000000000000000e+00 0.000000000000000000e+00 0.000000000000000000e+00
1.000000000000000021e-02 -1.547630041094026077e-01 -8.565846995637546590e-02 -1.182743089953209203e+00 -4.232840367500088075e-01 1.338538307983036857e+00 4.258409461791798356e-01 0.000000000000000000e+00 0.000000000000000000e+00 0.000000000000000000e+00
1.000000000000000021e-02 9.148087454882195546e-01 8.818150502820882863e-01 2.521992027388533231e-01 -7.668940208637695100e-02 -8.371815500223848960e-02 8.104435464348631601e-01 0.000000000000000000e+00 0.000000000000000000e+00 0.000000000000000000e+00
1.000000000000000021e-02 2.050428989364159182e+00 -2.290239740054030859e-01 -4.224631297083371040e-01 -1.521934014701362026e+00 -1.991694427441323079e+00 1.004455716674292010e+00 0.000000000000000000e+00 0.000000000000000000e+00 0.000000000000000000e+00
1.000000000000000021e-02 -9.842850069153246118e-01 -1.114214012744324106e-01 -1.329928514354704827e+00 -3.860260726705095485e-02 3.580349882385515659e-01 2.840813451499547004e-01 0.000000000000000000e+00 0.000000000000000000e+00 0.000000000000000000e+00
1.000000000000000021e-02 -1.039907792760631278e+00 4.250491784110375648e-01 -1.637515062531026133e-01 -7.862330047172251257e-01 9.069976533636350258e-01 1.987802743960577490e-01 0.000000000000000000e+00 0.000000000000000000e+00 0.000000000000000000e+00
1.000000000000000021e-02 -1.190031509270113030e-01 -1.801077341822967970e+00 -8.810181777869311448e-01 -2.378940731370922990e+00 8.322647584585496361e-01 6.649322464103462060e-01 0.000000000000000000e+00 0.000000000000000000e+00 0.000000000000000000e+00
1.000000000000000021e-02 -8.243483717013470047e-01 2.950944799661257001e-01 1.710779143222563026e-01 -1.515602472073044327e+00 7.137038334972301001e-01 -4.804964407700527684e-01 0.000000000000000000e+00 0.000000000000000000e+00 0.000000000000000000e+00
1.000000000000000021e-02 3.123423834524377551e-02 3.120527712027785228e-01 -1.824946904786967750e+00 -9.587009329121591594e-02 2.267781793634028542e+00 -2.933254343386405005e-01 0.000000000000000000e+00 0.000000000000000000e+00 0.000000000000000000e+00
1.000000000000000021e-02 -4.464284658686272778e-01 -8.350212097404510203e-01 1.771245774243743187e-01 -1.385505000074819915e+00 -6.222342585048110664e-01 -1.391107767379154148e-01 0.000000000000000000e+00 0.000000000000000000e+00 0.000000000000000000e+00
1.000000000000000021e-02 1.738117360282160240e+00 2.764023884158143402e-02 -1.045447718127631986e-01 -2.110858238764881545e+00 1.697409235948667439e+00 -3.758858651534455197e-02 0.000000000000000000e+00 0.000000000000000000e+00 0.000000000000000000e+00
1.000000000000000021e-02 3.861938545730576045e-01 2.623315548416252918e-01 9.819137374467760138e-01 -1.286145370287886003e+00 -1.317792919962252673e+00 -9.517342538798678753e-01 0.000000000000000000e+00 0.000000000000000000e+00 0.000000000000000000e+00
1.000000000000000021e-02 -1.310165872144090304e+00 -2.233271161697204243e-01 -3.533748185080061166e-01 4.751091930874745128e-01 -1.134570770978677728e-01 2.881153556454677522e-01 0.000000000000000000e+00 0.000000000000000000e+00 0.000000000000000000e+00
1.000000000000000021e-02 4.327365700905388413e-01 -2.004789116161639073e-01 2.239383727575824379e-01 1.348899061494014173e+00 7.646054547872914720e-01 2.894352423021864101e-02 0.000000000000000000e+00 0.000000000000000000e+00 0.000000000000000000e+00
1.000000000000000021e-02 1.570804615953663497e+00 5.971630655190365289e-01 -9.827843042801032158e-01 4.569386604863714951e-01 6.624621236440608740e-01 -9.512823478096851249e-01 0.000000000000000000e+00 0.000000000000000000e+00 0.000000000000000000e+00
1.000000000000000021e-02 1.280287049547687017e-01 -5.295834938690262561e-01 3.281289387069808439e-01 4.166248771029576470e-01 2.153995871095696124e+00 5.674672324622914710e-01 0.000000000000000000e+00 0.000000000000000000e+00 0.000000000000000000e+00
1.000000000000000021e-02 2.610980532477478189e-01 1.360359147108915479e-01 8.362578365445194617e-01 -1.375547428313149245e+00 9.004796836349047151e-01 3.035846539083343343e-01 0.000000000000000000e+00 0.000000000000000000e+00 0.000000000000000000e+00
1.000000000000000021e-02 -1.098215724000751958e+00 -1.154034413349904198e-01 -1.252247315854472243e+00 -6.345826969355832237e-01 9.152649502480624255e-01 -1.112545060585099721e+00 0.000000000000000000e+00 0.000000000000000000e+00 0.000000000000000000e+00
1.000000000000000021e-02 -3.182096482216950628e-01 2.617206749463110715e-01 1.126137832658487881e+00 -6.295555716937081270e-01 2.494966100606244575e-01 -4.429198947145251974e-01 0.000000000000000000e+00 0.000000000000000000e+00 0.000000000000000000e+00
1.000000000000000021e-02 1.261421472649935538e+00 -3.358728757113685903e-01 -2.035525481577346307e-01 3.402709206570273537e-01 -1.215999510483325441e+00 1.531974673929212827e+00 0.000000000000000000e+00 0.000000000000000000e+00 0.000000000000000000e+00
1.000000000000000021e-02 -9.843604868683438758e-01 1.078714468065737897e+00 1.060533913001806994e+00 -7.800823658576652164e-01 5.340310084692857506e-01 -1.206178799266901969e+00 0.000000000000000000e+00 0.000000000000000000e+00 0.000000000000000000e+00
1.000000000000000021e-02 1.024707103583504697e+00 3.167090396510614525e-01 6.819129481489697442e-01 -1.040831158233513687e+00 -1.319963659414760349e+00 1.297617263980336277e+00 0.000000000000000000e+00 0.000000000000000000e+00 0.000000000000000000e+00
1.000000000000000021e-02 2.159440702610175844e+00 -3.426325430541668493e-01 7.587454227448263699e-01 4.540901083063478283e-01 1.032526434523726833e+00 1.206676870940434299e+00 0.000000000000000000e+00 0.000000000000000000e+00 0.000000000000000000e+00
1.000000000000000021e-02 -1.700280094415290488e+00 2.551187039267751033e-01 2.332044278334441501e+00 -2.360050025418428676e-01 3.452632680281353950e-01 1.629269131471127174e+00 0.000000000000000000e+00 0.000000000000000000e+00 0.000000000000000000e+00
1.000000000000000021e-02 -3.330990441349744313e-01 1.215636523877769104e+00 1.174036539423625847e+00 -6.253880178055311045e-01 -4.743101766754013182e-01 1.179632586746702128e+00 0.000000000000000000e+00 0.000000000000000000e+00 0.000000000000000000e+00
1.000000000000000021e-02 -2.215930480238939571e-01 8.137941722396839772e-01 1.694192096727851760e-01 -6.703463421602166017e-01 1.022587681795918690e-01 -1.591516137014565624e+00 0.000000000000000000e+00 0.000000000000000000e+00 0.000000000000000000e+00
1.000000000000000021e-02 4.266564145988209489e-02 -1.217759881307778347e+00 2.122552826434525919e+00 -1.308673152097317161e+00 -2.789188023993073862e-01 -6.062212785011668326e-02 0.000000000000000000e+00 0.000000000000000000e+00 0.000000000000000000e+00
1.000000000000000021e-02 -1.279942358679541092e+00 2.124360552823730680e-02 -1.195177998820710741e+00 -9.557650186449767604e-01 6.254478211261126352e-01 1.658746324076254330e+00 0.000000000000000000e+00 0.000000000000000000e+00 0.000000000000000000e+00
1.000000000000000021e-02 9.005120381050273348e-01 -1.746033582908974591e+00 -2.368092039423979056e-01 4.005538578146209949e-01 -2.643738748147242967e-01 -1.115034912759541363e+00 0.000000000000000000e+00 0.000000000000000000e+00 0.000000000000000000e+00
1.000000000000000021e-02 -6.590993735019771149e-01 -4.521479172737280505e-02 9.369388509895242301e-01 -6.673599664905141005e-01 -1.058169766612253815e+00 -1.504559287296104025e-02 0.000000000000000000e+00 0.000000000000000000e+00 0.000000000000000000e+00
1.000000000000000021e-02 -4.741545165324592692e-01 -2.882990457553331054e-01 -4.818796778388353963e-01 -1.002608991610738354e+00 -1.801565809681244246e-01 6.603971955502691005e-01 0.000000000000000000e+00 0.000000000000000000e+00 0.000000000000000000e+00
1.000000000000000021e-02 2.582898581676909555e-01 -3.369901966623772838e-01 4.484285033076827465e-01 8.825482942660179964e-01 -1.375457080161838763e-01 -1.374361973230779466e+00 0.000000000000000000e+00 0.000000000000000000e+00 0.000000000000000000e+00
1.000000000000000021e-02 -5.351533552731532195e-01 5.584006033916029121e-01 2.189341419341224101e-02 3.571388518590398187e-01 2.094016535827924463e-01 9.853426487527647826e-01 0.000000000000000000e+00 0.000000000000000000e+00 0.000000000000000000e+00
1.000000000000000021e-02 4.290738105360670240e-01 7.907811169832097697e-02 5.160184219197184730e-01 -4.975471745634060250e-01 2.538800469294037465e-01 7.853777590922214058e-01 0.000000000000000000e+00 0.000000000000000000e+00 0.000000000000000000e+00
1.000000000000000021e-02 -6.021638202516961247e-01 1.394433827900806167e+00 -1.248260256920499245e+00 -1.498298419220438049e+00 -1.770529422786647489e+00 -1.052765632321184530e-01 0.000000000000000000e+00 0.000000000000000000e+00 0.000000000000000000e+00
1.000000000000000021e-02 2.430159415661854450e-01 -6.878796004636891226e-01 5.989913699400917224e-01 -1.734447459178950046e+00 1.803483458111952986e+00 -1.168696085675489993e+00 0.000000000000000000e+00 0.000000000000000000e+00 0.000000000000000000e+00
1.000000000000000021e-02 7.804270466727069033e-01 1.235067554692695246e+00 3.361680348927346129e-01 3.303779714735791129e-01 2.014191393023699317e-01 9.085274780560251839e-01 0.000000000000000000e+00 0.000000000000000000e+00 0.000000000000000000e+00
1.000000000000000021e-02 3.592686764858417092e-01 3.625556646180156384e-01 -3.349844906720959581e-01 1.481226817948143371e+00 8.444264887261925256e-01 -3.608574377553080414e-01 0.000000000000000000e+00 0.000000000000000000e+00 0.000000000000000000e+00
1.000000000000000021e-02 -2.340168675199978676e-01 2.003363735769611687e+00 6.299074167699852955e-01 -6.172252539054081666e-01 -7.816220635786442772e-01 -3.709357802333582699e-01 0.000000000000000000e+00 0.000000000000000000e+00 0.000000000000000000e+00
1.000000000000000021e-02 5.366630924660608093e-01 1.638254168097668662e-01 5.312722208851508032e-01 -5.299606427860086288e-01 1.447675797334046388e+00 -5.618042108382723665e-01 0.000000000000000000e+00 0.000000000000000000e+00 0.000000000000000000e+00
1.000000000000000021e-02 -1.295480506135022192e-01 3.559160527734600565e-01 -4.733203261390414029e-01 -9.504096782783704178e-01 3.788016858855076663e-01 -6.707473635908780540e-01 0.000000000000000000e+00 0.000000000000000000e+00 0.000000000000000000e+00
1.000000000000000021e-02 -4.251894200334349616e-01 -4.544116502803929869e-01 -9.708722984501656772e-02 4.700460469714244915e-01 -3.090114074061185018e-02 8.947730807008489329e-01 0.000000000000000000e+00 0.000000000000000000e+00 0.000000000000000000e+00
1.000000000000000021e-02 -1.282765729112659736e+00 2.040121264969520620e+00 -6.615492742933603010e-01 -7.832625380438147378e-01 -1.399867347753210645e+00 2.844351701878175209e+00 0.000000000000000000e+00 0.000000000000000000e+00 0.000000000000000000e+00
1.000000000000000021e-02 4.254266968383939029e-01 9.474086668087093877e-01 1.309835481235594790e+00 2.405509973892261955e-01 -4.468165806755270419e-01 -2.893009909633817434e-01 0.000000000000000000e+00 0.000000000000000000e+00 0.000000000000000000e+00
1.000000000000000021e-02 8.450418556260090863e-01 1.082025188887865363e+00 -1.565560751755979974e-01 -1.437417329412718839e-02 7.308745460324810317e-01 -1.069061273908416432e+00 0.000000000000000000e+00 0.000000000000000000e+00 0.000000000000000000e+00
1.000000000000000021e-02 1.541295988077018564e-01 -1.598233892816154578e+00 -3.498837738081276849e-01 1.793576901590582029e+00 2.349474721647619446e-01 3.315197593470332604e-01 0.000000000000000000e+00 0.000000000000000000e+00 0.000000000000000000e+00
1.000000000000000021e-02 1.270129512723465082e+00 -3.148725929693735881e-01 4.052247511279339909e-01 1.211625742722272969e+00 9.753654295408750174e-01 4.091158867067766491e-02 0.000000000000000000e+00 0.000000000000000000e+00 0.000000000000000000e+00
1.000000000000000021e-02 1.507781826229432243e+00 3.682535993644339145e-01 1.328818249500664184e+00 -9.027015439189872703e-01 -3.796941643325814075e-01 2.180773214014025907e+00 0.000000000000000000e+00 0.000000000000000000e+00 0.000000000000000000e+00
1.000000000000000021e-02 -5.177041045283357068e-01 -2.363569233797637725e-01 1.060151411018297019e+00 6.742764751729437567e-01 -8.336008551467862793e-01 5.057132838263946883e-01 0.000000000000000000e+00 0.000000000000000000e+00 0.000000000000000000e+00
1.000000000000000021e-02 -8.975891223208452008e-01 3.161030565427184746e-01 1.554476837614096274e+00 1.016590892321557860e+00 -1.022307313888511260e+00 -6.429224044639162416e-01 0.000000000000000000e+00 0.000000000000000000e+00 0.000000000000000000e+00
1.000000000000000021e-02 1.159429997277630742e+00 -7.298310280839659381e-02 -4.898094492632985575e-01 1.233653816897185340e+00 -1.242042010916948602e-01 -1.883107422354294846e-01 0.000000000000000000e+00 0.000000000000000000e+00 0.000000000000000000e+00
1.000000000000000021e-02 -1.184903905579606009e+00 2.443249290832204823e-01 1.423742239805671495e-01 -4.679655473883475442e-02 5.325477855924905940e-02 -5.215431955897645855e-01 0.000000000000000000e+00 0.000000000000000000e+00 0.000000000000000000e+00
1.000000000000000021e-02 -4.438098316002836441e-01 2.027283298236753684e+00 -5.430365583766203486e-01 7.616600794134747998e-01 -5.153858017202883612e-01 -6.656215891431117582e-01 0.000000000000000000e+00 0.000000000000000000e+00 0.000000000000000000e+00
1.000000000000000021e-02 -2.980746152741499677e-01 7.896906102172207564e-01 7.328117854994253833e-02 -4.699959841609779865e-01 2.656635361710129040e-01 -4.514848952310643315e-01 0.000000000000000000e+00 0.000000000000000000e+00 0.000000000000000000e+00
1.000000000000000021e-02 -2.445742866241430169e-01 -8.359726338157871250e-01 1.683541077371943695e+00 3.418382772047739437e-01 -1.824988085322045567e-02 2.983567319209320945e-01 0.000000000000000000e+00 0.000000000000000000e+00 0.000000000000000000e+00
1.000000000000000021e-02 1.014365299646487140e+00 -4.741439500852092648e-01 -1.243153679783047805e+00 -1.178937278708044767e+00 4.299317496505158931e-01 -3.017636667739439504e-01 0.000000000000000000e+00 0.000000000000000000e+00 0.000000000000000000e+00
1.000000000000000021e-02 1.038345852858676643e+00 2.155891755144457023e-01 -9.657707014141945212e-01 5.987870012478525572e-01 1.420203784605680752e+00 9.699735570103283633e-02 0.000000000000000000e+00 0.000000000000000000e+00 0.000000000000000000e+00
1.000000000000000021e-02 8.765991260008085817e-01 -3.008562578629244144e-01 -1.172687272617303419e-02 6.123626355846930602e-01 5.431031242285092597e-01 -7.964236796767254489e-01 0.000000000000000000e+00 0.000000000000000000e+00 0.000000000000000000e+00
1.000000000000000021e-02 7.258442019715471982e-01 -4.270797321047643536e-01 -1.454501914283221398e+00 -5.784794429503370417e-01 -1.882909308594432271e-02 -1.839923358654415697e+00 0.000000000000000000e+00 0.000000000000000000e+00 0.000000000000000000e+00
1.000000000000000021e-02 5.086226068146857404e-01 -8.194648739709402552e-01 4.346641200627202051e-01 9.464359455750603889e-02 -9.303999225492266545e-01 4.041050248005523260e-01 0.000000000000000000e+00 0.000000000000000000e+00 0.000000000000000000e+00
1.000000000000000021e-02 -7.051358469131187023e-01 -2.797998926280691023e+00 1.397657816543461384e-01 -6.393888084464065535e-01 1.592900964995069168e+00 -2.290925799207766678e-01 0.000000000000000000e+00 0.000000000000000000e+00 0.000000000000000000e+00
1.000000000000000021e-02 -4.889859515832992165e-01 -2.147705986488810115e-01 -4.708059850181979811e-01 -3.445953000835026425e-01 -5.685439380347894200e-01 7.287856944397955727e-01 0.000000000000000000e+00 0.000000000000000000e+00 0.000000000000000000e+00
1.000000000000000021e-02 3.532169193631230497e-01 1.044811999214719789e+00 -1.308503603444531427e+00 1.492493898724047141e-01 1.390849083100926808e+00 1.561406763290161592e+00 0.000000000000000000e+00 0.000000000000000000e+00 0.000000000000000000e+00
1.000000000000000021e-02 -9.255820682675364175e-01 1.616586281052323493e+00 3.418699937566946900e-01 2.033452273862845217e-01 6.068806350292944574e-01 1.056450597308658201e+00 0.000000000000000000e+00 0.000000000000000000e+00 0.000000000000000000e+00
1.000000000000000021e-02 -1.702829191944706944e+00 -2.780809157035037504e+00 1.329872362599843427e+00 -7.836519582640126824e-01 -9.518827651846503146e-01 -1.491037761485681568e+00 0.000000000000000000e+00 0.000000000000000000e+00 0.000000000000000000e+00
1.000000000000000021e-02 9.119288878542181065e-01 4.888691416710688742e-01 1.983330026351951103e+00 -1.477839045278299901e+00 8.096975919043908343e-01 2.028995830380408427e-01 0.000000000000000000e+00 0.000000000000000000e+00 0.000000000000000000e+00
