# Total Kinetic Energy: 243.97591813730523 J
# Total Potential Energy: -29369.205369447234 J
# Total Energy: -29125.22945130993 J
# mass x y z vx vy vz ax ay az
1.000000000000000056e-01 8.279099326211927234e-01 -5.685062195392327489e-01 -1.355596678959455903e-01 -1.715318668461635609e-01 3.361013610115342609e-01 1.028465941006803941e-01 0.000000000000000000e+00 0.000000000000000000e+00 0.000000000000000000e+00
1.000000000000000056e-01 -7.820369542704119770e-01 9.372981043660180145e-01 -1.160790750218712697e+00 1.659978955402112433e-01 -1.582906067114653870e-01 2.164121220742935281e-01 0.000000000000000000e+00 0.000000000000000000e+00 0.000000000000000000e+00
1.000000000000000056e-01 2.202485328579729895e+00 9.569069162084263835e-01 9.992746793690402418e-01 -3.453576470082864169e-01 -1.262312113466456109e-01 -1.457742985069567232e-01 0.000000000000000000e+00 0.000000000000000000e+00 0.000000000000000000e+00
1.000000000000000056e-01 -1.973927735973853292e-01 -1.409366319529956169e+00 1.280159006445251269e+00 5.663894517182388455e-02 2.018196548526711431e-01 -2.064680664304371915e-01 0.000000000000000000e+00 0.000000000000000000e+00 0.000000000000000000e+00
1.000000000000000056e-01 -5.119496236344039941e-01 9.977750412513394229e-01 2.924728984444369129e-01 1.054997133872085380e-01 -1.469986391675878468e-01 -9.448003079294486906e-02 0.000000000000000000e+00 0.000000000000000000e+00 0.000000000000000000e+00
1.000000000000000056e-01 1.266392377007780068e-01 1.241269568841614657e+00 -1.198197704213394221e+00 -3.988110226064259245e-02 -2.259673484399789822e-01 2.649112334750141629e-01 0.000000000000000000e+00 0.000000000000000000e+00 0.000000000000000000e+00
1.000000000000000056e-01 -6.356900541091917711e-01 6.672700233022131611e-02 -2.108648930241586728e-01 2.044629601672164065e-01 2.095787400603026096e-02 3.223872853555052875e-02 0.000000000000000000e+00 0.000000000000000000e+00 0.000000000000000000e+00
1.000000000000000056e-01 -1.183303858298903277e+00 3.112694161821325523e-01 -1.084639641482027628e+00 1.876145479514903514e-01 -3.399902085142869623e-02 1.742924792783764054e-01 0.000000000000000000e+00 0.000000000000000000e+00 0.000000000000000000e+00
1.000000000000000056e-01 6.204234162112526318e-02 1.735205807866560868e+00 8.102952247086157023e-01 2.848776799531748533e-02 -2.577242550601412940e-01 -1.178130668599213227e-01 0.000000000000000000e+00 0.000000000000000000e+00 0.000000000000000000e+00
1.000000000000000056e-01 -8.055590880753286109e-01 1.088299734712314004e+00 3.250850992405009965e-01 3.468489037110083495e-01 -2.097043815562423252e-01 -9.579554845214423298e-02 0.000000000000000000e+00 0.000000000000000000e+00 0.000000000000000000e+00
1.000000000000000056e-01 -5.285567148715546865e-02 3.622092101393339370e-01 -8.448916421597855164e-01 -5.227389384617403545e-02 -5.692871609532771868e-03 1.511836496039743183e-01 0.000000000000000000e+00 0.000000000000000000e+00 0.000000000000000000e+00
1.000000000000000056e-01 4.606997022107920947e-01 4.813401016896766693e-01 1.755877549116335201e+00 -4.333175360596117076e-02 -7.495178037811170424e-02 -2.564700782214693331e-01 0.000000000000000000e+00 0.000000000000000000e+00 0.000000000000000000e+00
1.000000000000000056e-01 3.793700144282630693e-01 -6.853158738854893128e-01 -2.834620131585745620e-02 1.156499338330809271e-02 1.788811220840491045e-01 6.264096168899255246e-02 0.000000000000000000e+00 0.000000000000000000e+00 0.000000000000000000e+00
1.000000000000000056e-01 1.019593531536016284e+00 -1.330579088969539026e+00 1.431616877104739283e+00 -1.334970779392613272e-01 2.215761311023580205e-01 -1.460400333276396234e-01 0.000000000000000000e+00 0.000000000000000000e+00 0.000000000000000000e+00
1.000000000000000056e-01 3.240882576607893584e-01 8.482624038534287703e-01 -2.031981695956592837e-01 -2.111951189549391705e-01 -1.653949167426477518e-01 1.077155342733075172e-01 0.000000000000000000e+00 0.000000000000000000e+00 0.000000000000000000e+00
1.000000000000000056e-01 -3.762332350259714464e-01 -1.624190055544958877e+00 5.450449681537557906e-02 1.287052148981638888e-01 3.621504099542470767e-01 2.709186652119233499e-02 0.000000000000000000e+00 0.000000000000000000e+00 0.000000000000000000e+00
1.000000000000000056e-01 1.607907013022140008e+00 2.713453157484456146e-01 -1.055590732071112647e+00 -1.939598094914956883e-01 -5.105340829291443727e-02 1.826707298382132250e-01 0.000000000000000000e+00 0.000000000000000000e+00 0.000000000000000000e+00
1.000000000000000056e-01 9.334663847317611340e-01 -1.995788737893956277e+00 -2.071772750229376125e+00 -4.682464678914560058e-02 1.009501649346298408e-01 9.058995400793870556e-02 0.000000000000000000e+00 0.000000000000000000e+00 0.000000000000000000e+00
1.000000000000000056e-01 6.004125605223404882e-01 9.597875084214596564e-02 -1.313073103067207426e-01 -4.309696422348052725e-02 -1.053776994924273264e-01 9.357633370161633213e-02 0.000000000000000000e+00 0.000000000000000000e+00 0.000000000000000000e+00
1.000000000000000056e-01 5.820243990119847860e-02 1.961748106807264858e+00 7.194511216738543047e-02 5.700237993351925598e-04 -2.983723467628362491e-01 3.905195447999104588e-03 0.000000000000000000e+00 0.000000000000000000e+00 0.000000000000000000e+00
1.000000000000000056e-01 2.041059159812919965e+00 -5.085306470848993676e-01 6.489965665426741248e-01 -2.301604888000874372e-01 8.398919763856674270e-02 -5.274975154934392896e-02 0.000000000000000000e+00 0.000000000000000000e+00 0.000000000000000000e+00
1.000000000000000056e-01 -9.675165709284535565e-01 -6.781843400931947263e-01 -8.993820970412453875e-01 2.247134209646768632e-01 1.703328114341685351e-01 5.758006923177672043e-02 0.000000000000000000e+00 0.000000000000000000e+00 0.000000000000000000e+00
1.000000000000000056e-01 1.544599748354330337e+00 1.002504479577928764e+00 8.843409997214844998e-01 -9.997708316859714450e-02 -2.310114499761907747e-01 -9.489798259069308350e-02 0.000000000000000000e+00 0.000000000000000000e+00 0.000000000000000000e+00
1.000000000000000056e-01 -8.244692972827130650e-02 5.763618756850383829e-01 8.742203196209841209e-02 9.680257514436164945e-02 2.066063318729835160e-02 -1.030372488112379081e-01 0.000000000000000000e+00 0.000000000000000000e+00 0.000000000000000000e+00
1.000000000000000056e-01 9.854043061981422325e-01 1.268424049857178604e-01 1.598174919318315623e-01 -3.661998765891709140e-01 3.384346914167708081e-02 -6.793596183373619424e-02 0.000000000000000000e+00 0.000000000000000000e+00 0.000000000000000000e+00
1.000000000000000056e-01 5.014850715443910367e-01 -1.215255249465874154e+00 -2.699172468710692385e+00 -1.994171275677010524e-02 4.885078098810602398e-02 1.352338470147597671e-01 0.000000000000000000e+00 0.000000000000000000e+00 0.000000000000000000e+00
1.000000000000000056e-01 -8.742840182781892039e-03 -5.846900659591454108e-01 -6.150996250002650489e-01 -6.939971972896125108e-02 -2.302127854757234360e-01 3.709401541543172254e+00 0.000000000000000000e+00 0.000000000000000000e+00 0.000000000000000000e+00
1.000000000000000056e-01 8.278278892369135278e-01 1.363943732180705526e+00 -1.158216038194624931e+00 -1.342764407170847496e-01 -1.645490170255178575e-01 1.723233628708659704e-01 0.000000000000000000e+00 0.000000000000000000e+00 0.000000000000000000e+00
1.000000000000000056e-01 -3.385136775882272020e-01 -9.821562514600268301e-01 -1.191091892396770824e+00 -4.853353393572022723e-02 3.050755489632095419e-01 -7.091411384891248282e-02 0.000000000000000000e+00 0.000000000000000000e+00 0.000000000000000000e+00
1.000000000000000056e-01 -1.922560185340855599e+00 9.582411222868643108e-01 7.573572900790586093e-01 1.815002083257670762e-01 -7.111041214196758831e-02 -8.443480696734212421e-02 0.000000000000000000e+00 0.000000000000000000e+00 0.000000000000000000e+00
1.000000000000000056e-01 8.233551736328335036e-01 7.139050434864937511e-01 -2.712987945583166915e+00 -3.797237016758021888e-02 -3.435443722363350216e-02 1.383927022865725498e-01 0.000000000000000000e+00 0.000000000000000000e+00 0.000000000000000000e+00
1.000000000000000056e-01 -3.745574341795919748e-01 -5.014645804489542558e-01 7.530822064325669585e-01 3.776663634508031775e-01 -1.932951691323856955e-02 -5.385346892257141249e-01 0.000000000000000000e+00 0.000000000000000000e+00 0.000000000000000000e+00
1.000000000000000056e-01 -4.421470360412471656e-01 3.351616803269629741e-01 9.169273283756775861e-01 8.503860280784714121e-01 3.751807760590076257e-01 -4.089568114072841265e-01 0.000000000000000000e+00 0.000000000000000000e+00 0.000000000000000000e+00
1.000000000000000056e-01 -2.064886411986125658e+00 1.644720493142007300e-01 -1.077288504449934736e+00 2.070165024362475292e-01 5.696508004634569938e-03 9.102255175142544286e-02 0.000000000000000000e+00 0.000000000000000000e+00 0.000000000000000000e+00
1.000000000000000056e-01 2.998509514846691149e-01 1.757257796282651219e+00 2.425213618097254109e+00 3.577002452343325690e-03 -9.547804930904149612e-02 -1.358624143924888894e-01 0.000000000000000000e+00 0.000000000000000000e+00 0.000000000000000000e+00
1.000000000000000056e-01 5.786718255412238721e-01 -1.517484887637181867e-01 1.260316940028196608e+00 8.461386120457907098e-03 -2.931751578726839863e-02 -2.737973530265540023e-01 0.000000000000000000e+00 0.000000000000000000e+00 0.000000000000000000e+00
1.000000000000000056e-01 -1.254379879483924487e-01 -1.117039991910323771e+00 1.856250784309378676e-01 3.200818052133769936e-02 2.240457901074973945e-01 -6.554010484954000959e-02 0.000000000000000000e+00 0.000000000000000000e+00 0.000000000000000000e+00
1.000000000000000056e-01 -7.735578697690606020e-01 -1.009840907042408586e+00 8.118440358319495287e-01 2.457397105883413480e-01 1.929377667942718255e-01 -1.622080685727048943e-01 0.000000000000000000e+00 0.000000000000000000e+00 0.000000000000000000e+00
1.000000000000000056e-01 -3.425135211767494359e-01 -1.813251243937231916e+00 6.523903067046080695e-01 7.033888855307551813e-02 2.768793807457169964e-01 -9.384767947931269005e-02 0.000000000000000000e+00 0.000000000000000000e+00 0.000000000000000000e+00
1.000000000000000056e-01 1.166610226577902143e+00 -6.108522390035588945e-01 2.607437797934885129e-02 -4.010190067514392553e-01 2.083004541611040983e-01 -2.269486493813663991e-02 0.000000000000000000e+00 0.000000000000000000e+00 0.000000000000000000e+00
1.000000000000000056e-01 8.624748666703638822e-01 -3.021175131473822217e-01 -1.794039744756418531e-01 -2.804018614518023478e-01 -1.167536868180800783e-02 1.529725515154217452e-01 0.000000000000000000e+00 0.000000000000000000e+00 0.000000000000000000e+00
1.000000000000000056e-01 7.207539513647386042e-02 9.752197927955623680e-01 6.511938758725686893e-02 -3.208830060525213329e-02 -2.747463098326984876e-01 -1.334345292450806186e-01 0.000000000000000000e+00 0.000000000000000000e+00 0.000000000000000000e+00
1.000000000000000056e-01 -1.676032359742338995e+00 1.427197259418809594e+00 2.445384753927466903e+00 7.455215056675039420e-02 -4.596013994427212285e-02 -9.046872374659611915e-02 0.000000000000000000e+00 0.000000000000000000e+00 0.000000000000000000e+00
1.000000000000000056e-01 2.220471722696800571e-02 -1.527353330970466772e-01 -1.067997627974780039e+00 6.269817257007071452e-03 2.628285035001499265e-03 3.610530685008603857e-01 0.000000000000000000e+00 0.000000000000000000e+00 0.000000000000000000e+00
1.000000000000000056e-01 1.672266218872796584e+00 5.482738118882869716e-02 -4.460649100049028370e-01 -2.857578547836650551e-01 -7.772273938379742949e-04 9.476232745947224534e-02 0.000000000000000000e+00 0.000000000000000000e+00 0.000000000000000000e+00
1.000000000000000056e-01 -6.400535078751028867e-03 -5.801040891093174334e-01 -6.399423110324031772e-01 2.326000449781946977e-01 7.607887311465544311e-01 -3.421563571360319411e+00 0.000000000000000000e+00 0.000000000000000000e+00 0.000000000000000000e+00
1.000000000000000056e-01 7.002810889613222400e-01 4.327056746612929772e-02 3.124197475990482809e-01 -4.345884788695689865e-02 9.431676914278252014e-03 -7.738078006663293151e-02 0.000000000000000000e+00 0.000000000000000000e+00 0.000000000000000000e+00
1.000000000000000056e-01 7.187040314357737159e-02 -2.589205321717897301e-01 -5.168522256056702346e-01 5.881540697616764041e-02 -8.597792136411920583e-02 4.208791606120770162e-02 0.000000000000000000e+00 0.000000000000000000e+00 0.000000000000000000e+00
1.000000000000000056e-01 -8.084767948982773955e-01 -5.665360685133841168e-01 -1.554789239907784948e+00 1.463161004678869281e-01 4.233185488317992712e-02 2.824049062013543332e-01 0.000000000000000000e+00 0.000000000000000000e+00 0.000000000000000000e+00
1.000000000000000056e-01 7.733980650677519941e-01 -8.886894162753901094e-01 1.497437673937978664e+00 -6.853780688975696922e-02 1.774497102325284792e-01 -2.550317094557028041e-01 0.000000000000000000e+00 0.000000000000000000e+00 0.000000000000000000e+00
1.000000000000000056e-01 -3.974882438714534283e-01 -9.185014069549480853e-01 -1.358005969783736555e+00 1.285160464593159135e-01 6.035936480899111584e-02 5.002090002016843506e-01 0.000000000000000000e+00 0.000000000000000000e+00 0.000000000000000000e+00
1.000000000000000056e-01 -2.245747999101561088e-01 5.741811894180074427e-01 1.864842173846511297e+00 1.379220063611940328e-01 -1.029831633411067426e-01 -2.008884906875841314e-01 0.000000000000000000e+00 0.000000000000000000e+00 0.000000000000000000e+00
1.000000000000000056e-01 4.312111331360202748e-01 5.833548664001761974e-01 -8.134594713181743098e-01 -1.773059153899052276e-01 -1.299524597528777248e-01 2.433354692933171193e-01 0.000000000000000000e+00 0.000000000000000000e+00 0.000000000000000000e+00
1.000000000000000056e-01 -2.693601742686155820e-01 -1.259409678494210816e+00 -5.532451845060767925e-02 1.466185944911498340e-01 2.613375634960932170e-01 1.765712754246805960e-01 0.000000000000000000e+00 0.000000000000000000e+00 0.000000000000000000e+00
1.000000000000000056e-01 8.557759047001322061e-01 -4.134864507444995230e-01 1.385951923416963494e+00 -2.041479703238477106e-01 1.026629989304974067e-01 -2.748490217057587004e-01 0.000000000000000000e+00 0.000000000000000000e+00 0.000000000000000000e+00
1.000000000000000056e-01 8.187095147055633015e-01 -1.166589094436965235e+00 1.444061007093632998e-01 -2.227280831456189547e-01 3.445420908563850415e-01 1.743144812329917165e-02 0.000000000000000000e+00 0.000000000000000000e+00 0.000000000000000000e+00
1.000000000000000056e-01 -3.767781454899771787e-01 3.760802470869565317e-01 8.958256912965287810e-01 -4.767220651946524890e-01 -4.378332778129759295e-01 9.181693159344460689e-03 0.000000000000000000e+00 0.000000000000000000e+00 0.000000000000000000e+00
1.000000000000000056e-01 -1.393579002848159831e-01 9.704368344596919771e-01 8.736198721681905921e-01 1.016478635432633837e-01 -2.061799796208484692e-01 -2.049950015110962864e-01 0.000000000000000000e+00 0.000000000000000000e+00 0.000000000000000000e+00
1.000000000000000056e-01 3.613003574209858737e-01 5.856075174499778546e-01 7.772032024955961571e-01 1.177371113773259190e-02 -1.032261520624618428e-01 -1.914872268345397255e-01 0.000000000000000000e+00 0.000000000000000000e+00 0.000000000000000000e+00
1.000000000000000056e-01 1.143405596527835133e+00 8.811086681085789074e-01 1.224740012268115796e+00 -1.307669059063231720e-01 -1.367429394881240767e-01 -2.235811886817696825e-01 0.000000000000000000e+00 0.000000000000000000e+00 0.000000000000000000e+00
1.000000000000000056e-01 -3.954485876354085772e-02 1.257967237738542687e+00 -3.920770724724532141e-01 6.523702572451128834e-01 -2.296232182318257209e+00 1.457611247104966701e+00 0.000000000000000000e+00 0.000000000000000000e+00 0.000000000000000000e+00
1.000000000000000056e-01 5.064422532365230323e-01 -8.613469231307756546e-01 6.861624546403287672e-01 -1.747892960260165052e-01 2.701047597892637375e-01 -1.743537129177306633e-01 0.000000000000000000e+00 0.000000000000000000e+00 0.000000000000000000e+00
1.000000000000000056e-01 -2.891916183546094921e-01 -4.957089485177327282e-01 6.085176334246461538e-01 -1.277989071860519306e-02 -1.157883582549677493e-01 1.698442769035438948e-01 0.000000000000000000e+00 0.000000000000000000e+00 0.000000000000000000e+00
1.000000000000000056e-01 1.784407284909846458e+00 -6.948814460692674944e-01 -1.078010712328273835e+00 -1.789220317419153439e-01 8.879908399910924066e-02 1.271067789333121534e-01 0.000000000000000000e+00 0.000000000000000000e+00 0.000000000000000000e+00
1.000000000000000056e-01 -7.750037951994669383e-01 -5.987743109201081326e-01 2.675266540728692410e-01 3.002094094934473212e-01 9.716009137599243561e-02 8.014886188144446783e-03 0.000000000000000000e+00 0.000000000000000000e+00 0.000000000000000000e+00
1.000000000000000056e-01 -1.319140042721415051e+00 -4.313577343399421782e-01 -1.096143378591470041e+00 2.677719390212033312e-01 5.220879191875713726e-02 1.373508683407639597e-01 0.000000000000000000e+00 0.000000000000000000e+00 0.000000000000000000e+00
1.000000000000000056e-01 -9.615627028674602617e-01 1.958343082268684032e+00 9.551918432341038878e-01 1.096031948188565530e-01 -1.671840466032082917e-01 -8.163821013114933023e-02 0.000000000000000000e+00 0.000000000000000000e+00 0.000000000000000000e+00
1.000000000000000056e-01 -1.718236179274782005e+00 5.387793948487221707e-01 1.462282450979963122e-01 2.475861589422338471e-01 -2.766046711326414567e-02 -4.893725774401289780e-02 0.000000000000000000e+00 0.000000000000000000e+00 0.000000000000000000e+00
1.000000000000000056e-01 -1.125221991219692352e+00 1.933780678255475616e-01 1.764158305266603013e-02 2.652357880381328581e-01 9.443968307556149452e-03 -3.960173104979560627e-02 0.000000000000000000e+00 0.000000000000000000e+00 0.000000000000000000e+00
1.000000000000000056e-01 4.792049221046774110e-01 3.386035635672154931e-01 3.897521965640957653e-01 1.594136141796834508e-02 -1.447212043478722232e-01 -9.773216038119490745e-02 0.000000000000000000e+00 0.000000000000000000e+00 0.000000000000000000e+00
1.000000000000000056e-01 7.228422848282177737e-01 1.438508579225492579e+00 8.459760770661824969e-01 -1.009011893633381812e-01 -2.818203385945278749e-01 -9.246739663555848809e-02 0.000000000000000000e+00 0.000000000000000000e+00 0.000000000000000000e+00
1.000000000000000056e-01 -4.248458283192368401e-01 -1.553760759991805962e+00 -1.358646074855218489e+00 5.658118421096039463e-02 2.431128057064896042e-01 1.441740415755064231e-01 0.000000000000000000e+00 0.000000000000000000e+00 0.000000000000000000e+00
1.000000000000000056e-01 -5.285387098372329451e-01 -4.033394987401639487e-01 -9.315634843232051265e-01 1.742583649128978951e-01 3.236725820702263112e-02 1.651563316433546924e-01 0.000000000000000000e+00 0.000000000000000000e+00 0.000000000000000000e+00
1.000000000000000056e-01 7.788263942656884486e-01 -1.395526868923510910e-01 5.485628672560634023e-01 -2.071695678363073001e-01 1.454856680537667257e-01 -2.529990343752590576e-01 0.000000000000000000e+00 0.000000000000000000e+00 0.000000000000000000e+00
1.000000000000000056e-01 -3.040809047061636683e-01 -7.798563314666637769e-01 6.009179273651209519e-01 1.603468948975754760e-01 3.600455864750866652e-01 -8.564412954941702516e-02 0.000000000000000000e+00 0.000000000000000000e+00 0.000000000000000000e+00
1.000000000000000056e-01 5.862590826902150942e-01 9.562703992203772652e-01 9.162910539659828713e-01 -7.028985067283341492e-02 -2.045956266299656656e-01 -1.734273826471044444e-01 0.000000000000000000e+00 0.000000000000000000e+00 0.000000000000000000e+00
1.000000000000000056e-01 4.991714669009487126e-01 -5.017332920028754195e-01 1.003881671855160640e+00 -4.064382751715049646e-02 1.177772015528276983e-01 -2.187098253770417000e-01 0.000000000000000000e+00 0.000000000000000000e+00 0.000000000000000000e+00
1.000000000000000056e-01 5.406315693953405166e-01 -7.172716067455159328e-02 -4.647118269710931449e-01 -1.150056341868831711e-01 -2.625249713207291821e-02 2.386609078479725310e-01 0.000000000000000000e+00 0.000000000000000000e+00 0.000000000000000000e+00
1.000000000000000056e-01 8.213437252617323409e-03 2.796519204744708498e-01 2.074516966920108896e+00 3.664467380182621914e-02 4.717788007427310693e-02 -2.894698140017517574e-01 0.000000000000000000e+00 0.000000000000000000e+00 0.000000000000000000e+00
1.000000000000000056e-01 1.923887114852928848e+00 8.556168219973436795e-01 8.337606560398338473e-01 -3.330080341364556884e-01 -1.990913318271233801e-01 -6.600195651262864838e-02 0.000000000000000000e+00 0.000000000000000000e+00 0.000000000000000000e+00
1.000000000000000056e-01 9.946942424196411059e-01 1.830197366229405986e+00 -3.591507739732303084e-01 -1.246851302958502522e-01 -2.126288269840365952e-01 5.855576147003216381e-02 0.000000000000000000e+00 0.000000000000000000e+00 0.000000000000000000e+00
1.000000000000000056e-01 1.787789283001891105e+00 6.885046478638033873e-01 7.590760898602033624e-01 -1.252719494100387188e-01 1.778614327125808692e-01 4.683175556388727290e-02 0.000000000000000000e+00 0.000000000000000000e+00 0.000000000000000000e+00
1.000000000000000056e-01 -1.714513769090133255e-01 9.196594486016421710e-01 -9.730943226133650370e-01 7.196857543004554769e-02 -2.005058814448072990e-01 2.458226774767555134e-01 0.000000000000000000e+00 0.000000000000000000e+00 0.000000000000000000e+00
1.000000000000000056e-01 -1.536056729314987379e+00 -9.147867215661571461e-01 1.055465493690107337e+00 1.921358401794984461e-01 8.232514257714584893e-02 -1.042442832447786766e-01 0.000000000000000000e+00 0.000000000000000000e+00 0.000000000000000000e+00
1.000000000000000056e-01 -1.426556382741247297e+00 8.303473460925131500e-01 -4.757380905726085740e-01 9.967522689657022650e-02 -1.312295583058832593e-01 -4.832860469887369920e-02 0.000000000000000000e+00 0.000000000000000000e+00 0.000000000000000000e+00
1.000000000000000056e-01 -2.156180390353908127e-01 7.230774972566836878e-01 -2.243033655887094746e-01 2.014303020173268677e-01 -7.326428646342429685e-02 1.321884396498091974e-01 0.000000000000000000e+00 0.000000000000000000e+00 0.000000000000000000e+00
1.000000000000000056e-01 1.155888433799284964e+00 -2.161532249247400284e+00 -2.145808641917771875e-01 -8.681566875268506567e-02 1.794415925280831992e-01 2.600220678397284144e-02 0.000000000000000000e+00 0.000000000000000000e+00 0.000000000000000000e+00
1.000000000000000056e-01 1.046704701882347432e+00 3.401899600795295631e-01 -1.190668550902705377e-03 -3.179162634540432242e-01 -2.445687839562503685e-01 1.817726683731564763e-01 0.000000000000000000e+00 0.000000000000000000e+00 0.000000000000000000e+00
1.000000000000000056e-01 -2.683631366984932098e-01 4.690530575735250007e-01 -9.892135505304480159e-01 2.254525321971919127e-01 -8.746406648651394722e-02 3.310670321647660730e-01 0.000000000000000000e+00 0.000000000000000000e+00 0.000000000000000000e+00
1.000000000000000056e-01 -4.140855758878420612e-01 1.367091157232922294e+00 -2.268859376554388796e-01 2.515787405963111900e-01 -3.258809950628063778e-01 3.205250453860045839e-02 0.000000000000000000e+00 0.000000000000000000e+00 0.000000000000000000e+00
1.000000000000000056e-01 1.283688136614133279e+00 7.293889371228318153e-01 2.001368515059075426e-01 -2.537811114503784604e-01 -2.015969266867422838e-01 3.268102726899900501e-02 0.000000000000000000e+00 0.000000000000000000e+00 0.000000000000000000e+00
1.000000000000000056e-01 4.437803113032414704e-01 -9.702737836815594763e-01 2.779413844167178405e-01 -6.443641381147043046e-02 3.126926759938198352e-01 -3.026283272531023541e-02 0.000000000000000000e+00 0.000000000000000000e+00 0.000000000000000000e+00
1.000000000000000056e-01 5.541192542290568346e-01 -5.482192892291414266e-01 -8.821622186587829706e-01 -1.251812709033075788e-01 3.892209915066913162e-01 2.232133105697801656e-01 0.000000000000000000e+00 0.000000000000000000e+00 0.000000000000000000e+00
1.000000000000000056e-01 1.320217437672137173e+00 2.118364482835248808e+00 1.927880097001698934e+00 -6.445012737267774572e-02 -1.174897385076489609e-01 -9.446758427441623307e-02 0.000000000000000000e+00 0.000000000000000000e+00 0.000000000000000000e+00
1.000000000000000056e-01 -3.529835192419465695e-02 1.245577988933332492e+00 -3.840496943673037955e-01 -6.909716149652251893e-01 1.675685466530273393e+00 -1.151261210466365759e+00 0.000000000000000000e+00 0.000000000000000000e+00 0.000000000000000000e+00
1.000000000000000056e-01 1.416929737340572315e-01 -7.359111695011192333e-01 7.370476278679809479e-01 3.976522986638315882e-02 1.683337982456121484e-01 -2.092106059848689303e-01 0.000000000000000000e+00 0.000000000000000000e+00 0.000000000000000000e+00
1.000000000000000056e-01 -1.629700345669340411e+00 8.131933605976328083e-01 -6.660076397171622586e-01 3.302033381057331574e-01 -9.631542095730348529e-02 1.829905916609562699e-01 0.000000000000000000e+00 0.000000000000000000e+00 0.000000000000000000e+00
1.000000000000000056e-01 6.131057480257088299e-01 -3.431304057087241066e-01 -9.408243816608288235e-01 -2.544395007780441142e-01 -1.213301937069976993e-01 3.748198027744043537e-01 0.000000000000000000e+00 0.000000000000000000e+00 0.000000000000000000e+00
1.000000000000000056e-01 1.320494535151686799e+00 3.545155669267010395e-02 1.857023387840867068e+00 -1.574390664092421011e-01 1.494053146889142390e-02 -2.287384293251234213e-01 0.000000000000000000e+00 0.000000000000000000e+00 0.000000000000000000e+00
1.000000000000000056e-01 9.109090635988434936e-01 2.776777761193228167e-01 1.169589956246418039e+00 -1.691488220076945714e-01 -4.714949755418364891e-02 -2.105268505970765702e-01 0.000000000000000000e+00 0.000000000000000000e+00 0.000000000000000000e+00
