# Total Kinetic Energy: 18822.73757676947 J
# Total Potential Energy: -28530.605283138066 J
# Total Energy: -9707.867706368597 J
# mass x y z vx vy vz ax ay az
1.000000000000000056e-01 7.704250564622632247e-01 -4.426510368366020631e-01 -1.015598045379342701e-01 -4.085556486864428960e-01 1.039525803519022018e+00 2.268021943754284786e-01 0.000000000000000000e+00 0.000000000000000000e+00 0.000000000000000000e+00
1.000000000000000056e-01 -7.267487238822730733e-01 8.832744074054660333e-01 -1.088751564369425662e+00 3.860041737577800669e-01 -3.870457735469663429e-01 5.039068845516672113e-01 0.000000000000000000e+00 0.000000000000000000e+00 0.000000000000000000e+00
1.000000000000000056e-01 2.084135378994440124e+00 9.134199392779006610e-01 9.496681138767723018e-01 -8.488778785719192088e-01 -3.127267854540131120e-01 -3.554112123728506711e-01 0.000000000000000000e+00 0.000000000000000000e+00 0.000000000000000000e+00
1.000000000000000056e-01 -1.782614653100661195e-01 -1.341157970710010972e+00 1.210228863390850673e+00 1.360876014945445189e-01 4.822776102459487846e-01 -4.968416049138820734e-01 0.000000000000000000e+00 0.000000000000000000e+00 0.000000000000000000e+00
1.000000000000000056e-01 -4.788154263054461013e-01 9.517637610268334658e-01 2.632822162389272802e-01 1.892199752957155756e-01 -3.125342037368336046e-01 -2.012300674442017434e-01 0.000000000000000000e+00 0.000000000000000000e+00 0.000000000000000000e+00
1.000000000000000056e-01 1.172308326724847555e-01 1.166773790416160583e+00 -1.110328993570449896e+00 -6.274445211352409901e-02 -5.346467996146830881e-01 6.036862686606029316e-01 0.000000000000000000e+00 0.000000000000000000e+00 0.000000000000000000e+00
1.000000000000000056e-01 -5.663864021370612623e-01 7.262017063923868754e-02 -2.004992395792908333e-01 4.932304065045264307e-01 3.385373137954732908e-02 6.846466430999247066e-02 0.000000000000000000e+00 0.000000000000000000e+00 0.000000000000000000e+00
1.000000000000000056e-01 -1.120144439600341935e+00 2.994155432213898016e-01 -1.025994030017662872e+00 4.459386409389222705e-01 -8.635466301827192381e-02 4.130070838066556838e-01 0.000000000000000000e+00 0.000000000000000000e+00 0.000000000000000000e+00
1.000000000000000056e-01 7.193029883377510814e-02 1.648132541580959787e+00 7.713233487325217297e-01 7.421235591777007590e-02 -6.120113420844366381e-01 -2.709472342955303037e-01 0.000000000000000000e+00 0.000000000000000000e+00 0.000000000000000000e+00
1.000000000000000056e-01 -6.835076635592290950e-01 1.016290322272450419e+00 2.929175841423523052e-01 9.004071284466315106e-01 -5.218904538349901090e-01 -2.375468308044869636e-01 0.000000000000000000e+00 0.000000000000000000e+00 0.000000000000000000e+00
1.000000000000000056e-01 -7.684037108966972063e-02 3.637323366279295311e-01 -7.996131908884843709e-01 -2.443621471276752333e-01 6.012237202926851848e-02 2.593526930571373734e-01 0.000000000000000000e+00 0.000000000000000000e+00 0.000000000000000000e+00
1.000000000000000056e-01 4.465970326183493766e-01 4.562454284201224453e-01 1.669641646213382291e+00 -9.479635476252092074e-02 -1.777155787056736713e-01 -6.050772407082817272e-01 0.000000000000000000e+00 0.000000000000000000e+00 0.000000000000000000e+00
1.000000000000000056e-01 3.823007008575433630e-01 -6.235776297664181733e-01 -6.081175185725757118e-03 1.890120012588233315e-03 4.464258001345302040e-01 1.761251767617396380e-01 0.000000000000000000e+00 0.000000000000000000e+00 0.000000000000000000e+00
1.000000000000000056e-01 9.745770708502428104e-01 -1.255635615831330210e+00 1.381974390663377905e+00 -3.181976983093554590e-01 5.313924205213991225e-01 -3.542356611445228731e-01 0.000000000000000000e+00 0.000000000000000000e+00 0.000000000000000000e+00
1.000000000000000056e-01 2.545376920865589088e-01 7.866640177342595353e-01 -1.619476962960907651e-01 -4.945732011218157975e-01 -4.684451271709177966e-01 3.215541204949717846e-01 0.000000000000000000e+00 0.000000000000000000e+00 0.000000000000000000e+00
1.000000000000000056e-01 -3.320126826194794711e-01 -1.500218782773341752e+00 6.421658608207796159e-02 3.198995057648047480e-01 8.911501391584348841e-01 7.212190835059559268e-02 0.000000000000000000e+00 0.000000000000000000e+00 0.000000000000000000e+00
1.000000000000000056e-01 1.542505360514152546e+00 2.541115242378238492e-01 -9.939059554231879368e-01 -4.616272668291715453e-01 -1.226351701115451637e-01 4.373004275894992188e-01 0.000000000000000000e+00 0.000000000000000000e+00 0.000000000000000000e+00
1.000000000000000056e-01 9.178342923001919784e-01 -1.961968883386994156e+00 -2.041476129403875905e+00 -1.093105304677895184e-01 2.375277213338952143e-01 2.123715164041407311e-01 0.000000000000000000e+00 0.000000000000000000e+00 0.000000000000000000e+00
1.000000000000000056e-01 5.881670517891794958e-01 5.836015552458221484e-02 -9.698850071046714871e-02 -6.801669107780947132e-02 -2.821794745829160900e-01 2.654776507170794608e-01 0.000000000000000000e+00 0.000000000000000000e+00 0.000000000000000000e+00
1.000000000000000056e-01 5.901694030712775069e-02 1.863169974084476266e+00 7.521561509418669966e-02 1.073224720090635437e-02 -6.837963972558985803e-01 3.236195385274642788e-02 0.000000000000000000e+00 0.000000000000000000e+00 0.000000000000000000e+00
1.000000000000000056e-01 1.963364746713303077e+00 -4.800315907579673080e-01 6.312668172996530602e-01 -5.495603937141619877e-01 2.026714247470224328e-01 -1.251636179182590847e-01 0.000000000000000000e+00 0.000000000000000000e+00 0.000000000000000000e+00
1.000000000000000056e-01 -8.916363515194600797e-01 -6.210310995161615333e-01 -8.801708153631601084e-01 5.321021162233993129e-01 4.030049363866285983e-01 1.363173214348090134e-01 0.000000000000000000e+00 0.000000000000000000e+00 0.000000000000000000e+00
1.000000000000000056e-01 1.514475132502073329e+00 9.228993766318790426e-01 8.501052917990016278e-01 -1.717129107909138586e-01 -5.767865982529860602e-01 -2.560167368487040185e-01 0.000000000000000000e+00 0.000000000000000000e+00 0.000000000000000000e+00
1.000000000000000056e-01 -4.864294079316565378e-02 5.848294551838814082e-01 5.016894653027619694e-02 2.484639444615074355e-01 7.517651664984945081e-02 -2.963504489073044423e-01 0.000000000000000000e+00 0.000000000000000000e+00 0.000000000000000000e+00
1.000000000000000056e-01 8.627063331312194716e-01 1.428087851503215544e-01 1.345490041949605198e-01 -8.334322259708081271e-01 1.674898494949314531e-01 -2.114557635455410478e-01 0.000000000000000000e+00 0.000000000000000000e+00 0.000000000000000000e+00
1.000000000000000056e-01 4.948771836443812688e-01 -1.198833229535416045e+00 -2.653935631462476685e+00 -4.592221503546085881e-02 1.158276409743033697e-01 3.172765215788824755e-01 0.000000000000000000e+00 0.000000000000000000e+00 0.000000000000000000e+00
1.000000000000000056e-01 3.128278279377920065e-03 -5.795930450299633385e-01 3.115569013886322625e-02 1.750586321657649491e-01 1.389009609791810596e-01 3.282308052630318329e+00 0.000000000000000000e+00 0.000000000000000000e+00 0.000000000000000000e+00
1.000000000000000056e-01 7.826312687597798412e-01 1.308429320846368871e+00 -1.101684347353998561e+00 -3.111811226047964118e-01 -3.933512690374366128e-01 3.944729792421784453e-01 0.000000000000000000e+00 0.000000000000000000e+00 0.000000000000000000e+00
1.000000000000000056e-01 -4.224869928679866882e-01 -1.343607533317917824e+00 -7.071943716303624727e-01 -8.568131084633459071e-01 -6.027068291285071489e+00 7.532972905519192075e+00 0.000000000000000000e+00 0.000000000000000000e+00 0.000000000000000000e+00
1.000000000000000056e-01 -1.861889874075915996e+00 9.340321003559952651e-01 7.294729365639276430e-01 4.223670309349022434e-01 -1.714422868635228914e-01 -1.942335861270938213e-01 0.000000000000000000e+00 0.000000000000000000e+00 0.000000000000000000e+00
1.000000000000000056e-01 8.108042927113741083e-01 7.030075126148682685e-01 -2.666658919425578755e+00 -8.671069570219451517e-02 -7.526911423567048121e-02 3.234686744217760701e-01 0.000000000000000000e+00 0.000000000000000000e+00 0.000000000000000000e+00
1.000000000000000056e-01 -4.471610116957135117e-02 -6.501485253740224568e-01 3.133941058121456069e-01 2.643326292598689786e+00 -1.450573757547393150e+00 -3.396569456738724124e+00 0.000000000000000000e+00 0.000000000000000000e+00 0.000000000000000000e+00
1.000000000000000056e-01 -3.987998540629210442e+00 -1.185735550379973580e+00 1.589699710688898149e+00 -2.102247721344594567e+01 -9.049484380180427223e+00 4.025040175839490253e+00 0.000000000000000000e+00 0.000000000000000000e+00 0.000000000000000000e+00
1.000000000000000056e-01 -1.995473589794208857e+00 1.661855251520549526e-01 -1.046600510293606900e+00 4.877911255148103531e-01 1.056601343117962409e-02 2.164668564412274843e-01 0.000000000000000000e+00 0.000000000000000000e+00 0.000000000000000000e+00
1.000000000000000056e-01 3.009978242582920238e-01 1.725242115891300498e+00 2.379782487430983640e+00 8.424581081126564230e-03 -2.244635618149446732e-01 -3.173266118265281599e-01 0.000000000000000000e+00 0.000000000000000000e+00 0.000000000000000000e+00
1.000000000000000056e-01 5.825572619507055627e-01 -1.632159390417403932e-01 1.167768396691152732e+00 3.673395309585270746e-02 -9.728837535452095064e-02 -6.542027919349878706e-01 0.000000000000000000e+00 0.000000000000000000e+00 0.000000000000000000e+00
1.000000000000000056e-01 -1.159471507659107642e-01 -1.042763209070803443e+00 1.607158550643748851e-01 5.801125141739192637e-02 5.191777070571603758e-01 -2.009919602749957179e-01 0.000000000000000000e+00 0.000000000000000000e+00 0.000000000000000000e+00
1.000000000000000056e-01 -6.899997475333440322e-01 -9.445081000477727473e-01 7.564482877800859928e-01 5.946452156736902195e-01 4.607193242855456838e-01 -3.951349075007237754e-01 0.000000000000000000e+00 0.000000000000000000e+00 0.000000000000000000e+00
1.000000000000000056e-01 -3.186138974214404729e-01 -1.719345828526232189e+00 6.206930012103500927e-01 1.709118404523186918e-01 6.677711975070088624e-01 -2.252750239780186015e-01 0.000000000000000000e+00 0.000000000000000000e+00 0.000000000000000000e+00
1.000000000000000056e-01 1.026416192356963464e+00 -5.375486843777043111e-01 1.778505484252373287e-02 -1.032034578750504306e+00 5.442702363657988540e-01 -6.371762798888037926e-02 0.000000000000000000e+00 0.000000000000000000e+00 0.000000000000000000e+00
1.000000000000000056e-01 7.675691689149417574e-01 -3.175760221457579191e-01 -1.243942005733502942e-01 -6.658012638058226074e-01 -2.556190203535679828e-01 4.276348675363951246e-01 0.000000000000000000e+00 0.000000000000000000e+00 0.000000000000000000e+00
1.000000000000000056e-01 6.232052378487350913e-02 8.752157369291929667e-01 2.497839854300473381e-02 -5.214884831073820365e-02 -7.668604112606625112e-01 -2.749676745276309897e-01 0.000000000000000000e+00 0.000000000000000000e+00 0.000000000000000000e+00
1.000000000000000056e-01 -1.650857598730112619e+00 1.411252952330709798e+00 2.415262431977315494e+00 1.763827206985406071e-01 -1.148951111333456898e-01 -2.078338682204498300e-01 0.000000000000000000e+00 0.000000000000000000e+00 0.000000000000000000e+00
1.000000000000000056e-01 2.547782477459712910e-02 -1.574813634446966537e-01 -9.467696361857071974e-01 3.431045569442562476e-02 -7.326490271817809319e-02 8.259961510273383656e-01 0.000000000000000000e+00 0.000000000000000000e+00 0.000000000000000000e+00
1.000000000000000056e-01 1.575645903061600572e+00 5.448939714632675124e-02 -4.138013773876508261e-01 -6.843861509740308824e-01 -3.308000507729121076e-03 2.303230855799612564e-01 0.000000000000000000e+00 0.000000000000000000e+00 0.000000000000000000e+00
1.000000000000000056e-01 3.862219049813594290e-02 -4.121134777483786982e-01 -1.185009767228818012e+00 2.301978727832138805e-01 9.919931356537750045e-01 -2.492632937414593464e+00 0.000000000000000000e+00 0.000000000000000000e+00 0.000000000000000000e+00
1.000000000000000056e-01 6.878813871062342544e-01 4.529080030873234436e-02 2.856759472174918990e-01 -7.161976678182736811e-02 -4.623497232734237114e-05 -1.958402363241834032e-01 0.000000000000000000e+00 0.000000000000000000e+00 0.000000000000000000e+00
1.000000000000000056e-01 9.417951770172873494e-02 -2.815549899938592504e-01 -4.985189464388003477e-01 1.864260938967838843e-01 -8.574723916695521642e-02 1.636481995712616155e-01 0.000000000000000000e+00 0.000000000000000000e+00 0.000000000000000000e+00
1.000000000000000056e-01 -7.586383636221980531e-01 -5.520050686106114934e-01 -1.458949657510951514e+00 3.595698717560306124e-01 1.115434165677241657e-01 6.738771889023671413e-01 0.000000000000000000e+00 0.000000000000000000e+00 0.000000000000000000e+00
1.000000000000000056e-01 7.499337623795245822e-01 -8.285850173009725594e-01 1.411117102961430225e+00 -1.679656829777856075e-01 4.261316894764866636e-01 -6.130876145131829436e-01 0.000000000000000000e+00 0.000000000000000000e+00 0.000000000000000000e+00
1.000000000000000056e-01 -2.860413209693432601e-01 -4.326699105735484219e-01 -1.697513740023077311e+00 1.056245197393557378e+00 6.897374815995831021e+00 -6.520323670196081167e+00 0.000000000000000000e+00 0.000000000000000000e+00 0.000000000000000000e+00
1.000000000000000056e-01 -1.773949505230688617e-01 5.392073135994237543e-01 1.799036401757894144e+00 3.414688781104888160e-01 -2.521852848584285600e-01 -4.486454486960471666e-01 0.000000000000000000e+00 0.000000000000000000e+00 0.000000000000000000e+00
1.000000000000000056e-01 3.717808614234313080e-01 5.374822275750379408e-01 -7.324425290743030725e-01 -4.197080986241412126e-01 -3.396813937316905396e-01 5.678781623746170792e-01 0.000000000000000000e+00 0.000000000000000000e+00 0.000000000000000000e+00
1.000000000000000056e-01 -2.177138273840178162e-01 -1.167696831667278001e+00 7.582514899047839048e-03 3.872951322298322507e-01 6.835010621150435783e-01 4.743589999758719422e-01 0.000000000000000000e+00 0.000000000000000000e+00 0.000000000000000000e+00
1.000000000000000056e-01 7.862831508498169253e-01 -3.777423049799614740e-01 1.291352685464003169e+00 -4.960151550461578962e-01 2.605979082837003857e-01 -6.843087994850176603e-01 0.000000000000000000e+00 0.000000000000000000e+00 0.000000000000000000e+00
1.000000000000000056e-01 7.419426368365409363e-01 -1.047959176964938788e+00 1.506171490589427175e-01 -5.572604096210342917e-01 8.582226412588734865e-01 4.681895947741588487e-02 0.000000000000000000e+00 0.000000000000000000e+00 0.000000000000000000e+00
1.000000000000000056e-01 3.275118160336912165e+00 1.857694596033708123e+00 1.119387034215376109e-01 2.156422054478035122e+01 8.741793330755687208e+00 -4.620245382308048931e+00 0.000000000000000000e+00 0.000000000000000000e+00 0.000000000000000000e+00
1.000000000000000056e-01 -1.031215897987795282e-01 9.039588927893247305e-01 8.039474953722433037e-01 2.726359956086025771e-01 -4.477267456998721973e-01 -4.919167034743275879e-01 0.000000000000000000e+00 0.000000000000000000e+00 0.000000000000000000e+00
1.000000000000000056e-01 3.646970627803098886e-01 5.631269325240724211e-01 7.095297691182596012e-01 5.201882850683327286e-02 -1.561842850995996956e-01 -4.805622582035991019e-01 0.000000000000000000e+00 0.000000000000000000e+00 0.000000000000000000e+00
1.000000000000000056e-01 1.099591537167402766e+00 8.347517137596976999e-01 1.148222944893280140e+00 -3.032872133803450332e-01 -3.296285317862993058e-01 -5.447408416592822711e-01 0.000000000000000000e+00 0.000000000000000000e+00 0.000000000000000000e+00
1.000000000000000056e-01 2.316609145354133759e+00 1.746306458179254673e+00 -5.735291923388344593e+00 1.346623284462599024e+01 2.623989759961707691e+00 -3.029755266865258889e+01 0.000000000000000000e+00 0.000000000000000000e+00 0.000000000000000000e+00
1.000000000000000056e-01 4.458444092105710022e-01 -7.691897389524278150e-01 6.255220751866295004e-01 -4.434171982147369628e-01 6.587827926881824059e-01 -4.473570034074805246e-01 0.000000000000000000e+00 0.000000000000000000e+00 0.000000000000000000e+00
1.000000000000000056e-01 -4.941386919829419688e-01 -4.161450205095648114e-01 9.193801026350416628e-01 -1.782023965952137745e+00 9.196359400069706869e-01 2.524372210191913268e+00 0.000000000000000000e+00 0.000000000000000000e+00 0.000000000000000000e+00
1.000000000000000056e-01 1.724192886316605389e+00 -6.649206854987442794e-01 -1.035193290647680175e+00 -4.245969485705628488e-01 2.118733848938649245e-01 3.025570075816461091e-01 0.000000000000000000e+00 0.000000000000000000e+00 0.000000000000000000e+00
1.000000000000000056e-01 -6.719944661350233384e-01 -5.672561841076315670e-01 2.706350534495120530e-01 7.408835562855409229e-01 2.100350558351270214e-01 1.739582825925162918e-02 0.000000000000000000e+00 0.000000000000000000e+00 0.000000000000000000e+00
1.000000000000000056e-01 -1.228122696433049166e+00 -4.141069969446645183e-01 -1.049714108715964267e+00 6.479657682131751972e-01 1.200772661629207760e-01 3.283827307363023085e-01 0.000000000000000000e+00 0.000000000000000000e+00 0.000000000000000000e+00
1.000000000000000056e-01 -9.249353079025566249e-01 1.902145775127464855e+00 9.283373482595420612e-01 2.554285131390858221e-01 -3.924344847873473818e-01 -1.855542863993418501e-01 0.000000000000000000e+00 0.000000000000000000e+00 0.000000000000000000e+00
1.000000000000000056e-01 -1.635480861322627044e+00 5.290530848118493168e-01 1.298441150458974902e-01 5.783433636609778272e-01 -7.111717445448842434e-02 -1.178960635000178697e-01 0.000000000000000000e+00 0.000000000000000000e+00 0.000000000000000000e+00
1.000000000000000056e-01 -1.036222536025846797e+00 1.956810073350760404e-01 4.025383928989144725e-03 6.263314957838542751e-01 9.696718028350521587e-03 -1.017862730338443961e-01 0.000000000000000000e+00 0.000000000000000000e+00 0.000000000000000000e+00
1.000000000000000056e-01 4.889605986006052007e-01 2.872777872869185511e-01 3.558085062284310207e-01 1.061005842017725270e-01 -3.935892403942596318e-01 -2.582921037420122801e-01 0.000000000000000000e+00 0.000000000000000000e+00 0.000000000000000000e+00
1.000000000000000056e-01 6.897636333705319256e-01 1.341988641844068519e+00 8.145675792784623503e-01 -2.252194198271343650e-01 -6.869774012875942137e-01 -2.228663492056661144e-01 0.000000000000000000e+00 0.000000000000000000e+00 0.000000000000000000e+00
1.000000000000000056e-01 -4.058599196034113343e-01 -1.471733393617759900e+00 -1.309748650475517362e+00 1.327243087475481753e-01 5.718025196240845709e-01 3.528081905485448422e-01 0.000000000000000000e+00 0.000000000000000000e+00 0.000000000000000000e+00
1.000000000000000056e-01 -4.692950865775842306e-01 -3.920328146358944554e-01 -8.774473465941510231e-01 4.160710109173941795e-01 9.187880591469148317e-02 3.689389800438980238e-01 0.000000000000000000e+00 0.000000000000000000e+00 0.000000000000000000e+00
1.000000000000000056e-01 7.094557150790760103e-01 -8.676390922146488827e-02 4.562608219894738748e-01 -4.839395753496702479e-01 4.031037223127145186e-01 -7.160583871181679383e-01 0.000000000000000000e+00 0.000000000000000000e+00 0.000000000000000000e+00
1.000000000000000056e-01 -2.472983476008833170e-01 -6.412963870045745862e-01 5.722840978873326989e-01 4.675410125606772049e-01 9.742437688814539198e-01 -2.790055347661387075e-01 0.000000000000000000e+00 0.000000000000000000e+00 0.000000000000000000e+00
1.000000000000000056e-01 5.637889033743178624e-01 8.847677411093062272e-01 8.550577374587920998e-01 -1.472222795474089907e-01 -5.109348126649564392e-01 -4.378700866849504769e-01 0.000000000000000000e+00 0.000000000000000000e+00 0.000000000000000000e+00
1.000000000000000056e-01 4.856989212217207030e-01 -4.621248453427185821e-01 9.291219590277918217e-01 -9.156890041973865524e-02 2.768267392029801766e-01 -5.369488772678495669e-01 0.000000000000000000e+00 0.000000000000000000e+00 0.000000000000000000e+00
1.000000000000000056e-01 5.039801828840203557e-01 -8.194905758001846952e-02 -3.821325321445531720e-01 -2.391217518622587301e-01 -8.048836223968856840e-02 6.026439732150240536e-01 0.000000000000000000e+00 0.000000000000000000e+00 0.000000000000000000e+00
1.000000000000000056e-01 2.020707603958357343e-02 2.961708474290042914e-01 1.976877678293127660e+00 8.277585128169688555e-02 1.205411468768060601e-01 -6.896354053219017066e-01 0.000000000000000000e+00 0.000000000000000000e+00 0.000000000000000000e+00
1.000000000000000056e-01 1.749142211876861586e+00 7.876794343583002345e-01 7.800463187538733134e-01 -6.744320445773051453e+00 3.847408578219932096e+00 -2.983792935592775031e+00 0.000000000000000000e+00 0.000000000000000000e+00 0.000000000000000000e+00
1.000000000000000056e-01 9.540809555773686057e-01 1.758805254512614269e+00 -3.393336920330377038e-01 -2.768475471482953476e-01 -5.022830894526644219e-01 1.412684465697769953e-01 0.000000000000000000e+00 0.000000000000000000e+00 0.000000000000000000e+00
1.000000000000000056e-01 1.803978383719615275e+00 7.531119300421367235e-01 8.063522906332872831e-01 5.594778230610882197e+00 -3.841261596231037245e+00 2.938933724708971962e+00 0.000000000000000000e+00 0.000000000000000000e+00 0.000000000000000000e+00
1.000000000000000056e-01 -1.467104959788931295e-01 8.487126059361365105e-01 -8.939896898184566121e-01 1.750041375171340896e-01 -5.279344174318256755e-01 5.413572171418914447e-01 0.000000000000000000e+00 0.000000000000000000e+00 0.000000000000000000e+00
1.000000000000000056e-01 -1.472104296417576563e+00 -8.864074192483719639e-01 1.020666662888178200e+00 4.461277509403930863e-01 1.999367548878014100e-01 -2.437747480454221516e-01 0.000000000000000000e+00 0.000000000000000000e+00 0.000000000000000000e+00
1.000000000000000056e-01 -1.401353890666227953e+00 7.855160700199489421e-01 -4.988897350389550067e-01 8.672329360857003455e-02 -3.214557073975093937e-01 -2.419030067632883529e-01 0.000000000000000000e+00 0.000000000000000000e+00 0.000000000000000000e+00
1.000000000000000056e-01 -1.464839809506873480e-01 6.921200083306050521e-01 -1.742068525523909617e-01 5.093037563315824245e-01 -2.565232099440069580e-01 3.901071817758300919e-01 0.000000000000000000e+00 0.000000000000000000e+00 0.000000000000000000e+00
1.000000000000000056e-01 1.126744364947973587e+00 -2.101306960076054331e+00 -2.058694325354038235e-01 -2.052486370750447042e-01 4.239426685450798371e-01 6.129195736251563664e-02 0.000000000000000000e+00 0.000000000000000000e+00 0.000000000000000000e+00
1.000000000000000056e-01 9.313344909632016444e-01 2.466179242813181793e-01 6.646950307779149469e-02 -9.075138520348680071e-01 -7.790933473863996817e-01 5.414859805866677478e-01 0.000000000000000000e+00 0.000000000000000000e+00 0.000000000000000000e+00
1.000000000000000056e-01 -1.844879247093410002e-01 4.332749150408646277e-01 -8.733788677161535841e-01 6.782911629153957067e-01 -3.190132711236624008e-01 8.701399531144836663e-01 0.000000000000000000e+00 0.000000000000000000e+00 0.000000000000000000e+00
1.000000000000000056e-01 -3.400498745471886020e-01 1.258247543400552448e+00 -2.086680717668347451e-01 4.630325685859759122e-01 -7.618285279084417994e-01 1.569747382855575524e-01 0.000000000000000000e+00 0.000000000000000000e+00 0.000000000000000000e+00
1.000000000000000056e-01 1.197441397778591377e+00 6.617532455566440541e-01 2.126577759189552386e-01 -6.107892873922498023e-01 -4.785735046561713224e-01 9.419116704566268816e-02 0.000000000000000000e+00 0.000000000000000000e+00 0.000000000000000000e+00
1.000000000000000056e-01 4.216809210784975837e-01 -8.629859209408622389e-01 2.674498833145014798e-01 -1.652936340768726142e-01 7.756008155986811037e-01 -7.778205900103900283e-02 0.000000000000000000e+00 0.000000000000000000e+00 0.000000000000000000e+00
1.000000000000000056e-01 5.541400624026672217e-01 -3.067542942824676988e-01 -8.336788145536452310e-01 5.737070948194348263e-01 2.997350893189993926e+00 4.789603447333042052e-02 0.000000000000000000e+00 0.000000000000000000e+00 0.000000000000000000e+00
1.000000000000000056e-01 1.298700719094377565e+00 2.078948697229697107e+00 1.896239803344455188e+00 -1.496364836308321788e-01 -2.768178126423668783e-01 -2.220031848074487946e-01 0.000000000000000000e+00 0.000000000000000000e+00 0.000000000000000000e+00
1.000000000000000056e-01 -2.398010680848256637e+00 5.798167431768095348e-01 5.030957308452747689e+00 -1.347963096038629338e+01 -3.589605396659052428e+00 3.064832597868744912e+01 0.000000000000000000e+00 0.000000000000000000e+00 0.000000000000000000e+00
1.000000000000000056e-01 1.556873486004288487e-01 -6.794809333385254391e-01 6.642542478122887006e-01 1.142587746504470925e-01 3.907151061933774039e-01 -5.459939064724382840e-01 0.000000000000000000e+00 0.000000000000000000e+00 0.000000000000000000e+00
1.000000000000000056e-01 -1.511086155873552439e+00 7.806673580907497190e-01 -5.975322047861826302e-01 9.220578871985146696e-01 -2.297861586656795019e-01 5.590239793680957803e-01 0.000000000000000000e+00 0.000000000000000000e+00 0.000000000000000000e+00
1.000000000000000056e-01 4.828426576993545827e-01 -4.928218476132444903e-01 -7.866682218269898108e-01 -1.497091103898170905e+00 -2.334640010202781557e+00 1.384096534052876581e+00 0.000000000000000000e+00 0.000000000000000000e+00 0.000000000000000000e+00
1.000000000000000056e-01 1.267578040728018607e+00 4.064124959121363095e-02 1.779684994855573299e+00 -3.719623154582193392e-01 3.703893216319878445e-02 -5.478914000676875506e-01 0.000000000000000000e+00 0.000000000000000000e+00 0.000000000000000000e+00
1.000000000000000056e-01 8.541693335502689166e-01 2.618108806402640321e-01 1.097383555343950379e+00 -3.953694673227633460e-01 -1.162766849879819514e-01 -5.167853580890341414e-01 0.000000000000000000e+00 0.000000000000000000e+00 0.000000000000000000e+00
