# Total Kinetic Energy: 3369.321925335881 J
# Total Potential Energy: -27673.004369683054 J
# Total Energy: -24303.682444347174 J
# mass x y z vx vy vz ax ay az
4.444444444444444614e-02 1.006347992994517382e+00 -1.192708012282709257e-01 4.220746153803950351e-01 1.344918819403776666e+00 -1.312189101312401185e+00 -2.403510683887330190e-01 0.000000000000000000e+00 0.000000000000000000e+00 0.000000000000000000e+00
4.444444444444444614e-02 -9.530806939104904396e-01 8.582692789565866953e-02 -4.070388273718833494e-01 -9.115461619790370396e-01 5.161676666472668762e-01 -7.007240158678788022e-01 0.000000000000000000e+00 0.000000000000000000e+00 0.000000000000000000e+00
4.444444444444444614e-02 -2.179726117858223233e+00 -7.074084836009855159e-01 -1.659248490923794228e-01 1.094140904376209811e+00 -1.113036771100934574e+00 -2.105092632365188621e-01 0.000000000000000000e+00 0.000000000000000000e+00 0.000000000000000000e+00
4.444444444444444614e-02 -7.842701022289547130e-02 -1.086171349662313546e+00 -1.118196831473790231e+00 4.292706182411850091e-01 1.282732436504613327e-01 4.633900399080995713e-01 0.000000000000000000e+00 0.000000000000000000e+00 0.000000000000000000e+00
4.444444444444444614e-02 -5.713534044422325930e-01 -1.621824042831603974e+00 4.462587817576281479e-02 5.367515330353741509e-01 -9.524738913243371852e-02 1.240195151762236492e+00 0.000000000000000000e+00 0.000000000000000000e+00 0.000000000000000000e+00
4.444444444444444614e-02 1.136337604290763581e+00 -9.428401057482083125e-01 -1.392550546303079395e+00 -1.419404807484568209e+00 -1.284683203012533692e+00 6.372347759474463746e-01 0.000000000000000000e+00 0.000000000000000000e+00 0.000000000000000000e+00
4.444444444444444614e-02 4.154375305113509609e-01 -9.934462493492184354e-01 2.300233965556136795e+00 -1.265068206021275232e+00 1.436069521542640892e+00 -8.516914242471164409e-02 0.000000000000000000e+00 0.000000000000000000e+00 0.000000000000000000e+00
4.444444444444444614e-02 1.543089270367378418e+00 2.368847259993067667e-02 5.691444706264134901e-01 -5.633225633254826392e-02 -2.083845581912147915e-01 6.180824321306618296e-01 0.000000000000000000e+00 0.000000000000000000e+00 0.000000000000000000e+00
4.444444444444444614e-02 9.793242829433718155e-02 -9.152839028562710366e-01 2.046239028275552041e+00 6.453429679383764217e-01 -1.047684309130943126e+00 -4.880545807392528967e-01 0.000000000000000000e+00 0.000000000000000000e+00 0.000000000000000000e+00
4.444444444444444614e-02 -1.120665711013706378e+00 1.164951314627843848e+00 -1.077467363585643767e+00 -8.883558934157241849e-01 3.843740862286738891e-02 4.595196601294257444e-01 0.000000000000000000e+00 0.000000000000000000e+00 0.000000000000000000e+00
4.444444444444444614e-02 -3.795094114084838210e-01 2.318823844705783788e-01 -1.781985708569783444e+00 -3.984784367351169171e-02 -1.658215616037088669e+00 -6.059693951418695240e-02 0.000000000000000000e+00 0.000000000000000000e+00 0.000000000000000000e+00
4.444444444444444614e-02 -1.043445009843398719e+00 1.227943768426202273e-02 -1.389695261022240169e+00 -9.286468970994697925e-01 -1.094239651620201759e+00 1.286014112563176992e+00 0.000000000000000000e+00 0.000000000000000000e+00 0.000000000000000000e+00
4.444444444444444614e-02 1.095250321623268075e+00 -1.817228967821074015e-01 8.170791526953644635e-01 -1.377350509918732757e-01 -7.925785279541125439e-02 8.494570053999358494e-01 0.000000000000000000e+00 0.000000000000000000e+00 0.000000000000000000e+00
4.444444444444444614e-02 -8.654506618704508325e-01 -1.413089464706745568e+00 2.173639039644469140e+00 -3.578888914439202762e-01 -1.026246231949842436e+00 -1.044336852550273198e+00 0.000000000000000000e+00 0.000000000000000000e+00 0.000000000000000000e+00
4.444444444444444614e-02 2.114665583769516355e-01 1.253936618582041307e+00 -7.069404110085240056e-01 -7.292386210853520068e-02 4.291942809046160878e-01 1.097204581969731141e+00 0.000000000000000000e+00 0.000000000000000000e+00 0.000000000000000000e+00
4.444444444444444614e-02 -1.815762913706318482e+00 -3.289759284379129012e-01 2.791279128555787525e-01 -1.741662771560618106e-01 -4.746270558558386976e-01 -1.644193883734547779e+00 0.000000000000000000e+00 0.000000000000000000e+00 0.000000000000000000e+00
4.444444444444444614e-02 -1.516641332150175492e+00 -6.104491811088778030e-01 1.440567359312201257e+00 3.198398231786502843e-01 -7.041654126563120508e-01 1.473536095355810205e-01 0.000000000000000000e+00 0.000000000000000000e+00 0.000000000000000000e+00
4.444444444444444614e-02 -3.159456754153988634e-01 1.747402331842516032e+00 1.348726919049759276e+00 1.117350315032006325e+00 6.953274534085873704e-01 3.510653854252197004e-01 0.000000000000000000e+00 0.000000000000000000e+00 0.000000000000000000e+00
4.444444444444444614e-02 7.835602262012669739e-01 -8.299445691072101505e-01 3.703322869759270164e-01 -6.795496999022452300e-01 -3.259844407853416670e-01 -3.247159317057560557e+00 0.000000000000000000e+00 0.000000000000000000e+00 0.000000000000000000e+00
4.444444444444444614e-02 2.772886910780134051e-01 -6.600459010257032633e-01 2.059033073894453100e-02 -5.103561503417626266e-01 -2.604115930050939220e-01 -9.367497719180309934e-01 0.000000000000000000e+00 0.000000000000000000e+00 0.000000000000000000e+00
4.444444444444444614e-02 4.840613565094440962e-01 -1.491176804427249536e+00 6.183222219550262855e-01 -4.044118450390711272e-01 1.080795874779750143e+00 -5.614375835383317304e-01 0.000000000000000000e+00 0.000000000000000000e+00 0.000000000000000000e+00
4.444444444444444614e-02 -8.089925127927218018e-02 1.773117725764593811e+00 -6.714883338728730999e-01 -6.480882527282852412e-02 -2.521441552960990706e-01 6.616477533248377174e-01 0.000000000000000000e+00 0.000000000000000000e+00 0.000000000000000000e+00
4.444444444444444614e-02 5.217520631121248531e-01 8.318995962721610349e-01 -2.108403367749095147e-01 3.244493868341616905e-01 1.074032732654878863e+00 8.285210158610017972e-01 0.000000000000000000e+00 0.000000000000000000e+00 0.000000000000000000e+00
4.444444444444444614e-02 3.007888123824133397e-01 -2.485991807737809312e-01 -2.211246773594488513e+00 2.203219896110842624e-01 -9.021991121681259551e-02 2.666977463898858036e-01 0.000000000000000000e+00 0.000000000000000000e+00 0.000000000000000000e+00
4.444444444444444614e-02 -3.237636257077044499e-01 5.639114821781225917e-01 -1.898211167620856177e+00 -1.041496411399758237e+00 -2.216248800465133950e+00 -8.021002414966824090e-02 0.000000000000000000e+00 0.000000000000000000e+00 0.000000000000000000e+00
4.444444444444444614e-02 2.423798486985414419e-02 3.487555622120563914e-01 -2.176326598234117338e-01 -7.080479166372255495e-01 3.826885673723637860e-01 1.576580076113851259e-01 0.000000000000000000e+00 0.000000000000000000e+00 0.000000000000000000e+00
4.444444444444444614e-02 5.807601902215026035e-01 1.087019450059789394e+00 -3.069450063850445720e-01 1.215121938953050318e+00 6.995613841546369782e-01 2.899863944244115976e-01 0.000000000000000000e+00 0.000000000000000000e+00 0.000000000000000000e+00
4.444444444444444614e-02 -1.417623827087487243e+00 -2.703370537840448229e+00 4.845812021206966635e-01 -1.339712012086730075e+00 -2.905734357087049746e-01 3.743947824971978755e-01 0.000000000000000000e+00 0.000000000000000000e+00 0.000000000000000000e+00
4.444444444444444614e-02 -6.952296244874973941e-02 -1.666973835528997583e-01 9.719512361657521859e-01 9.010265291399867094e-01 -4.275357093397695318e-01 -1.429692070093893319e+00 0.000000000000000000e+00 0.000000000000000000e+00 0.000000000000000000e+00
4.444444444444444614e-02 -1.526475703288263430e+00 1.212961378593088030e-01 -6.726143392130983223e-01 -3.533442459283135384e-01 7.206936192491676385e-01 2.629068047854801637e+00 0.000000000000000000e+00 0.000000000000000000e+00 0.000000000000000000e+00
4.444444444444444614e-02 2.291893186583853215e+00 3.096095107045278016e-01 1.084632038873482474e+00 7.723679285271221051e-01 1.004316990951380273e+00 1.723727131152855141e-01 0.000000000000000000e+00 0.000000000000000000e+00 0.000000000000000000e+00
4.444444444444444614e-02 7.788673166743749210e-01 -1.925188351321428515e+00 3.886944821327045774e-01 9.900621181936249127e-02 6.415750402415502096e-01 3.560201197805155093e-01 0.000000000000000000e+00 0.000000000000000000e+00 0.000000000000000000e+00
4.444444444444444614e-02 -1.412494165044134498e+00 6.486745029964843257e-01 6.062076253350936472e-01 1.231231346644762858e+00 4.577300929819717035e-01 1.401614838769885907e+00 0.000000000000000000e+00 0.000000000000000000e+00 0.000000000000000000e+00
4.444444444444444614e-02 -4.797767572535941993e-01 1.123070356258278668e+00 -6.793165870494166647e-01 -7.792755646891753596e-01 -1.535308819645904599e+00 1.302821119489902646e+00 0.000000000000000000e+00 0.000000000000000000e+00 0.000000000000000000e+00
4.444444444444444614e-02 9.570173362293580288e-01 1.367523335649335703e+00 5.462973312009059557e-01 -3.318414541027335796e-01 3.600783814858370957e-01 -2.266495757259008245e-02 0.000000000000000000e+00 0.000000000000000000e+00 0.000000000000000000e+00
4.444444444444444614e-02 -2.553827650992219755e+00 4.839502806986616390e-01 -2.277549752150391793e-01 1.162593341855334916e+00 6.719342029130987992e-01 -1.478795620260707988e+00 0.000000000000000000e+00 0.000000000000000000e+00 0.000000000000000000e+00
4.444444444444444614e-02 -1.596089163501744013e+00 -1.555705595250944651e+00 3.642792526392884395e-02 1.277502780478786681e-01 -2.506307161631635694e-01 -5.604273620621788021e-01 0.000000000000000000e+00 0.000000000000000000e+00 0.000000000000000000e+00
4.444444444444444614e-02 1.531893568166025954e+00 3.051030143104596082e-01 -2.151773510914378462e-01 7.099975075540021496e-01 1.132528540852711707e+00 -7.794604138297389628e-01 0.000000000000000000e+00 0.000000000000000000e+00 0.000000000000000000e+00
4.444444444444444614e-02 4.946644456609423091e-01 -8.154057741800777026e-02 -7.530084182329488396e-02 2.916733632295087197e+00 -7.278207051587387219e-03 6.800299161545637627e-01 0.000000000000000000e+00 0.000000000000000000e+00 0.000000000000000000e+00
4.444444444444444614e-02 -2.376988137302691872e-01 -1.500603284892141565e+00 -5.245393472465400553e-01 2.603820211777146287e+00 2.569363409074954863e+00 1.007894356613474152e+00 0.000000000000000000e+00 0.000000000000000000e+00 0.000000000000000000e+00
4.444444444444444614e-02 -1.357110386540500091e+00 3.962895209798003027e-01 -8.036555616940926905e-01 1.209564867693163848e+00 1.917957184260511150e-01 -2.657065310617080289e+00 0.000000000000000000e+00 0.000000000000000000e+00 0.000000000000000000e+00
4.444444444444444614e-02 5.896614054885082057e-01 -3.360217292872673678e-01 4.321124746775840131e-01 2.588482073687471685e-02 1.151494917787897476e+00 -1.486807108866028626e+00 0.000000000000000000e+00 0.000000000000000000e+00 0.000000000000000000e+00
4.444444444444444614e-02 6.320384289254124544e-02 -1.628656566152217877e-01 1.708586830255998945e-01 -6.426449296187479454e-02 2.571904001205923551e-01 -1.288911752564940283e+00 0.000000000000000000e+00 0.000000000000000000e+00 0.000000000000000000e+00
4.444444444444444614e-02 6.987284978920059730e-01 -7.361681390797465419e-01 2.615116079054723208e+00 -7.443189526030442593e-01 -1.846051226544385804e+00 1.685068823196532728e+00 0.000000000000000000e+00 0.000000000000000000e+00 0.000000000000000000e+00
4.444444444444444614e-02 8.226144205054252145e-01 3.680924124325580249e-01 -3.717880031673226893e-01 -1.266021327199611024e+00 -9.215090915418741035e-01 -4.153433353606171274e-01 0.000000000000000000e+00 0.000000000000000000e+00 0.000000000000000000e+00
4.444444444444444614e-02 1.317787817837546394e+00 9.065375932910373358e-01 9.157096777203047600e-01 4.107969871396265349e-01 1.414531637591068591e+00 2.459554443481406505e-01 0.000000000000000000e+00 0.000000000000000000e+00 0.000000000000000000e+00
4.444444444444444614e-02 -1.533847257592639290e-01 1.182675811822763601e+00 -7.890720844513399168e-01 -6.725852317693983284e-01 -1.269794285707076309e+00 -3.465210716330930918e-01 0.000000000000000000e+00 0.000000000000000000e+00 0.000000000000000000e+00
4.444444444444444614e-02 8.118518108750982787e-01 2.397403375956512761e-01 -1.927431897917996517e+00 -8.086244506248073671e-01 9.618291112839209844e-02 -1.051929121090661390e+00 0.000000000000000000e+00 0.000000000000000000e+00 0.000000000000000000e+00
4.444444444444444614e-02 1.471606921472765617e+00 1.048130942363206981e-02 -2.993928646629528401e-01 1.847403933847902024e+00 1.068975392261581003e+00 1.030436265618714708e+00 0.000000000000000000e+00 0.000000000000000000e+00 0.000000000000000000e+00
4.444444444444444614e-02 -1.531907301758046902e+00 2.776683814013229945e+00 7.978150074197768449e-01 -6.313132618527305118e-01 1.744773745612932525e-01 -1.058511661971180740e+00 0.000000000000000000e+00 0.000000000000000000e+00 0.000000000000000000e+00
4.444444444444444614e-02 -6.346861670808282563e-01 7.099963243214513220e-01 -5.494043649512408978e-01 5.276450321397220256e-01 1.082632400699242270e+00 1.880816246611248355e+00 0.000000000000000000e+00 0.000000000000000000e+00 0.000000000000000000e+00
4.444444444444444614e-02 -1.641328681995836772e-02 -8.119711483166293375e-02 8.593433704924855476e-01 1.257291463649485019e-01 8.121312656630580440e-01 3.011014269683394140e-01 0.000000000000000000e+00 0.000000000000000000e+00 0.000000000000000000e+00
4.444444444444444614e-02 -7.560121667257836409e-01 8.043346992572394938e-02 -1.682461220546901615e+00 3.553178650700570818e-01 -1.553436037441676965e-01 -1.110499412329193580e+00 0.000000000000000000e+00 0.000000000000000000e+00 0.000000000000000000e+00
4.444444444444444614e-02 4.141088752899635406e-01 -1.601293758616402219e+00 -3.255468925712112216e-01 1.521182844905145881e+00 8.016661352124009321e-01 -7.110641790542157059e-01 0.000000000000000000e+00 0.000000000000000000e+00 0.000000000000000000e+00
4.444444444444444614e-02 1.268171611030857848e+00 -2.153568981427668838e+00 -1.822598559504519378e-01 1.008401927285003774e+00 -4.694494973389238823e-01 1.332976134319952211e+00 0.000000000000000000e+00 0.000000000000000000e+00 0.000000000000000000e+00
4.444444444444444614e-02 1.167436987486161898e-01 8.533419341820866477e-02 1.426558956342559137e+00 -6.818318911385810033e-01 6.242895677357973572e-01 1.404896785115026248e+00 0.000000000000000000e+00 0.000000000000000000e+00 0.000000000000000000e+00
4.444444444444444614e-02 8.058331802346259121e-01 -2.891374797460070756e+00 5.176068666649809996e-02 2.511303610594953772e-01 9.502627402928462974e-01 2.366601491724956152e-01 0.000000000000000000e+00 0.000000000000000000e+00 0.000000000000000000e+00
4.444444444444444614e-02 4.517798496879402159e-01 -4.726287071742840684e-01 5.145920723256998119e-01 -1.315685311418235415e-01 2.646921364183977277e-01 -4.880192084705417543e-01 0.000000000000000000e+00 0.000000000000000000e+00 0.000000000000000000e+00
4.444444444444444614e-02 -1.176918735718713860e+00 -6.175755351284188954e-01 1.514194210199928947e-01 -1.546982098567694530e+00 1.461998154382165571e-01 -2.638070020648071168e-01 0.000000000000000000e+00 0.000000000000000000e+00 0.000000000000000000e+00
4.444444444444444614e-02 -9.522447905253530465e-01 4.537726539291442318e-01 2.205324887722248217e+00 -6.645299982229105895e-01 -4.096945719881033288e-01 -7.621898202017302060e-01 0.000000000000000000e+00 0.000000000000000000e+00 0.000000000000000000e+00
4.444444444444444614e-02 -1.456937560570778611e+00 -2.179509507964944248e+00 -3.268631431844575830e-01 4.811769478901138375e-01 -4.656740219878322540e-01 8.592318840726136386e-01 0.000000000000000000e+00 0.000000000000000000e+00 0.000000000000000000e+00
4.444444444444444614e-02 1.320281036572763744e+00 6.853239591338694536e-01 2.901419929694203440e-02 -1.439379711690142560e+00 -1.726789405247725284e+00 -3.671641970605047378e-01 0.000000000000000000e+00 0.000000000000000000e+00 0.000000000000000000e+00
4.444444444444444614e-02 3.314305995971197349e-01 7.034335462383014548e-01 -5.187572792039478742e-01 5.756481734206210232e-01 -6.592043760769674687e-01 -1.151948349109579661e+00 0.000000000000000000e+00 0.000000000000000000e+00 0.000000000000000000e+00
4.444444444444444614e-02 -4.128196227564900900e-01 -1.479570777336654264e-02 4.486811721624923144e-01 -1.122952037945403214e+00 7.486670401985051626e-01 6.910414381327443234e-01 0.000000000000000000e+00 0.000000000000000000e+00 0.000000000000000000e+00
4.444444444444444614e-02 7.979534832710372116e-01 4.658261150350225810e-01 2.604055689966389142e+00 -1.794476080265483275e-01 6.947680387644658007e-01 -1.110893168379688101e+00 0.000000000000000000e+00 0.000000000000000000e+00 0.000000000000000000e+00
4.444444444444444614e-02 -3.997389801289472078e-01 8.536822033078123040e-01 1.547838734825395024e+00 -3.296430993460698344e-01 1.460069444798913985e+00 -3.007800886653894459e-02 0.000000000000000000e+00 0.000000000000000000e+00 0.000000000000000000e+00
4.444444444444444614e-02 -1.086636341804487094e+00 1.213067336489075831e+00 -5.567746745872118597e-01 1.861177386209090789e-01 -4.857313078564825526e-01 3.348025323773662354e-01 0.000000000000000000e+00 0.000000000000000000e+00 0.000000000000000000e+00
4.444444444444444614e-02 -3.583104059303465760e-02 -1.263686627106981319e-01 2.862741181485831121e-01 2.694151182143455503e-01 -5.658727128217940772e-01 5.173542184322106330e-01 0.000000000000000000e+00 0.000000000000000000e+00 0.000000000000000000e+00
4.444444444444444614e-02 -1.230006734306646976e+00 9.390478595783013915e-01 3.836586138803411150e-01 -4.822479019126102440e-01 9.842651011508568581e-01 -6.541043912819729522e-01 0.000000000000000000e+00 0.000000000000000000e+00 0.000000000000000000e+00
4.444444444444444614e-02 -4.800100443543083018e-02 -4.808717916159627737e-01 -8.068455930888579486e-01 -2.127928579397773967e-01 1.244235749596351193e+00 -9.850898901710457567e-01 0.000000000000000000e+00 0.000000000000000000e+00 0.000000000000000000e+00
4.444444444444444614e-02 -1.635314504577716876e+00 -1.097383024494654080e+00 4.887443828112814082e-01 1.246331641913383859e+00 -4.787517672738538232e-01 -4.091394672235004748e-01 0.000000000000000000e+00 0.000000000000000000e+00 0.000000000000000000e+00
4.444444444444444614e-02 5.745352905145370004e-01 1.294036083075593258e+00 1.177036603009501636e+00 6.397840103876977214e-01 -1.996827184274592160e+00 -1.378136344546337044e+00 0.000000000000000000e+00 0.000000000000000000e+00 0.000000000000000000e+00
4.444444444444444614e-02 -1.110701453704276531e+00 -1.001254700489233374e+00 -8.919586555452200249e-01 4.856376038125889139e-01 1.504447058745583543e-01 5.643120391354793375e-01 0.000000000000000000e+00 0.000000000000000000e+00 0.000000000000000000e+00
4.444444444444444614e-02 -8.798101966635757387e-01 -1.501769430887511803e-01 5.346676595061079507e-01 -1.920713814812084475e-01 -2.206118380188633668e-02 -1.490943616661617899e+00 0.000000000000000000e+00 0.000000000000000000e+00 0.000000000000000000e+00
4.444444444444444614e-02 -4.408279033505181355e-01 -4.636382420966850271e-01 -8.821160553533510251e-01 -1.528577752978571347e+00 -5.353906351588717527e-01 1.808593724648611234e+00 0.000000000000000000e+00 0.000000000000000000e+00 0.000000000000000000e+00
4.444444444444444614e-02 -8.034896294854682042e-01 -1.011896620292960236e+00 -1.285281761714928694e-01 1.149960945538562207e+00 -1.001052362598109591e+00 1.967137087412804908e+00 0.000000000000000000e+00 0.000000000000000000e+00 0.000000000000000000e+00
4.444444444444444614e-02 1.165331352031948375e+00 -5.668532570096010970e-01 -9.719208787281520268e-01 -2.307354732534995456e+00 -1.614047755578311705e+00 -1.394419828122640093e+00 0.000000000000000000e+00 0.000000000000000000e+00 0.000000000000000000e+00
4.444444444444444614e-02 -3.022203361704914881e-01 1.439881328435922203e+00 7.853574859544910636e-01 -1.635114227400414233e+00 1.465760155773995876e+00 1.179410349595123586e+00 0.000000000000000000e+00 0.000000000000000000e+00 0.000000000000000000e+00
4.444444444444444614e-02 -1.433709152373589202e+00 -1.288872099660199444e+00 -1.174300354738642360e+00 1.872429669851963574e+00 1.441467121738412849e-01 2.962454018606190953e-01 0.000000000000000000e+00 0.000000000000000000e+00 0.000000000000000000e+00
4.444444444444444614e-02 -5.168004678355112569e-01 2.706207932477893707e-01 -6.126751498534646068e-01 1.498924164317803287e+00 2.385832310124466060e-01 -1.350798157499361496e+00 0.000000000000000000e+00 0.000000000000000000e+00 0.000000000000000000e+00
4.444444444444444614e-02 1.493112199316220634e+00 3.701650754723333492e-01 1.978485770364129204e+00 -2.494378237833135614e+00 9.735842643561465337e-01 7.229741632064230483e-01 0.000000000000000000e+00 0.000000000000000000e+00 0.000000000000000000e+00
4.444444444444444614e-02 -1.194997847668723523e+00 -1.135304904500763712e+00 1.610359940060739570e+00 -2.570519064666271225e-01 -4.921786734443069911e-01 -1.891402169958504298e-01 0.000000000000000000e+00 0.000000000000000000e+00 0.000000000000000000e+00
4.444444444444444614e-02 -5.808248323685646364e-01 8.943215778774166180e-01 -4.676333961164503839e-01 2.818182318325904712e-01 1.926535765766010933e+00 1.036209389523041979e+00 0.000000000000000000e+00 0.000000000000000000e+00 0.000000000000000000e+00
4.444444444444444614e-02 1.654934372743302573e+00 -2.594843154937122587e-01 -1.182206804574491121e+00 1.532711762844369385e+00 -4.449330049369507600e-01 1.669813488877670116e+00 0.000000000000000000e+00 0.000000000000000000e+00 0.000000000000000000e+00
4.444444444444444614e-02 -8.794675689297775101e-01 -4.206579983561780506e-02 -2.451954170460702853e-01 1.395659385150401222e-01 -3.039631926766814818e-01 2.057116053683298584e-01 0.000000000000000000e+00 0.000000000000000000e+00 0.000000000000000000e+00
4.444444444444444614e-02 -7.850014617699553332e-01 1.192010576579386694e+00 3.854439393113100465e-01 -5.763484106240491789e-01 -1.322031836044461339e-01 5.160490475616028583e-01 0.000000000000000000e+00 0.000000000000000000e+00 0.000000000000000000e+00
4.444444444444444614e-02 2.136449716207537014e-02 4.514232599999020712e-01 -5.919797926656910070e-01 1.992556349247872838e+00 1.312622607155064847e+00 8.963833452503938704e-01 0.000000000000000000e+00 0.000000000000000000e+00 0.000000000000000000e+00
4.444444444444444614e-02 -2.097586403407679378e-01 1.807587770071692690e+00 -1.309540947613549444e-01 -2.152243117943170303e-01 -9.642208867932986482e-01 -6.640524561884916244e-01 0.000000000000000000e+00 0.000000000000000000e+00 0.000000000000000000e+00
4.444444444444444614e-02 -8.357736560439993356e-02 -8.508134817592002408e-01 -5.462653837888820779e-02 -1.574753125631781048e+00 1.399750834858188020e-01 7.599003694305868084e-01 0.000000000000000000e+00 0.000000000000000000e+00 0.000000000000000000e+00
4.444444444444444614e-02 6.000905140794846604e-01 -8.801516840373972972e-01 -1.650922269839671386e-01 -3.925417629489931781e-01 9.850022120225920830e-01 1.132842789959134927e-01 0.000000000000000000e+00 0.000000000000000000e+00 0.000000000000000000e+00
4.444444444444444614e-02 3.115937536263320706e-01 -3.847117753468701773e-01 2.282849989656548395e+00 -6.939705026398227394e-01 -5.892255240226838831e-02 2.270553121934556717e+00 0.000000000000000000e+00 0.000000000000000000e+00 0.000000000000000000e+00
4.444444444444444614e-02 -2.792289166398164713e-01 -1.748326495482610765e+00 1.214483010894464865e-01 -5.940250628792399512e-01 -1.375232652788686671e+00 -1.014393118719461251e+00 0.000000000000000000e+00 0.000000000000000000e+00 0.000000000000000000e+00
4.444444444444444614e-02 -2.124448169195958247e+00 7.078913904696534365e-01 7.620069464835010908e-01 4.171162517045062801e-01 1.118784638854442015e-01 -1.360634716401966315e+00 0.000000000000000000e+00 0.000000000000000000e+00 0.000000000000000000e+00
4.444444444444444614e-02 -2.886798396110474840e-01 6.924188459942401397e-04 -3.774937963016655740e-01 -8.606276359807413234e-01 -8.529883814503134154e-01 -1.407537254171981278e+00 0.000000000000000000e+00 0.000000000000000000e+00 0.000000000000000000e+00
4.444444444444444614e-02 -7.236627082036607428e-01 -7.252970108683185479e-01 3.251600008496259298e-01 -8.132794105546029551e-01 -2.525859224704691264e-01 3.868579444130653688e-01 0.000000000000000000e+00 0.000000000000000000e+00 0.000000000000000000e+00
4.444444444444444614e-02 -5.851129869372091452e-01 -7.139846193694774357e-01 -1.095838512189833081e+00 4.014490606901141012e-01 -1.223594256454153095e+00 -1.063426646038013512e+00 0.000000000000000000e+00 0.000000000000000000e+00 0.000000000000000000e+00
4.444444444444444614e-02 1.517914047151281753e+00 1.362987345655229943e+00 1.814691827257120860e+00 8.533102797950260499e-01 -3.041629206341498470e-01 5.462347955114137399e-01 0.000000000000000000e+00 0.000000000000000000e+00 0.000000000000000000e+00
4.444444444444444614e-02 2.071932734745402183e+00 -9.350052349391548834e-01 5.425263990277533477e-01 -1.235067510257839896e+00 -1.636188211912755541e+00 -2.761206369016803164e-01 0.000000000000000000e+00 0.000000000000000000e+00 0.000000000000000000e+00
4.444444444444444614e-02 1.330224870256158987e+00 6.701324457812905810e-02 4.022198366905805900e-01 -1.025105853304197900e+00 8.596261345248970009e-01 -6.374625737968989125e-02 0.000000000000000000e+00 0.000000000000000000e+00 0.000000000000000000e+00
4.444444444444444614e-02 5.084634509377827793e-01 9.977660784672758298e-01 5.637067664516680621e-01 -2.714141254642376211e+00 -2.839450663554345389e-01 1.380020576886272776e+00 0.000000000000000000e+00 0.000000000000000000e+00 0.000000000000000000e+00
4.444444444444444614e-02 3.238409511743603475e-01 -3.885006125064895399e-01 2.062941788050978165e+00 -6.789260492349188381e-01 4.958893223936324812e-01 5.528698524517979829e-01 0.000000000000000000e+00 0.000000000000000000e+00 0.000000000000000000e+00
4.444444444444444614e-02 -4.002456322135349298e-01 -7.451645530878793222e-01 -2.713641611431056311e-01 -7.202701539257105878e-01 1.267745721135312698e+00 -1.822778241865130822e+00 0.000000000000000000e+00 0.000000000000000000e+00 0.000000000000000000e+00
4.444444444444444614e-02 7.905238365387075028e-01 -7.194690058096083751e-01 -2.333692569988554399e-01 5.679569458244150271e-01 -1.150263300805882238e+00 -8.857619149198725506e-01 0.000000000000000000e+00 0.000000000000000000e+00 0.000000000000000000e+00
4.444444444444444614e-02 -1.359771631399244063e+00 -1.258263856245585677e+00 -1.959671922112353748e-01 -5.460317916927976967e-01 1.157024913512250563e+00 1.224937432539087823e+00 0.000000000000000000e+00 0.000000000000000000e+00 0.000000000000000000e+00
4.444444444444444614e-02 -9.063623254322522582e-02 -1.212303633007469017e+00 -7.666605348799997444e-01 9.822602939084780216e-01 8.162806115707774701e-01 2.289604466406244543e-01 0.000000000000000000e+00 0.000000000000000000e+00 0.000000000000000000e+00
4.444444444444444614e-02 4.366410008730744474e-01 -9.210045168829547046e-01 -1.884457634335069964e-01 -6.529687329440703181e-01 -1.192468363340390969e+00 3.679333365802746614e-01 0.000000000000000000e+00 0.000000000000000000e+00 0.000000000000000000e+00
4.444444444444444614e-02 -1.845940240361162221e+00 -1.782706735453301328e-01 6.688448728609797111e-01 -3.548498741303830056e-02 -1.538199081228407872e+00 1.774482797035080717e-01 0.000000000000000000e+00 0.000000000000000000e+00 0.000000000000000000e+00
4.444444444444444614e-02 -1.424940744329951658e-01 3.305252344062437619e-01 1.212059753168482912e+00 8.718300875271498551e-01 1.169747715511786801e+00 -2.512031036312784016e-01 0.000000000000000000e+00 0.000000000000000000e+00 0.000000000000000000e+00
4.444444444444444614e-02 6.479364460881655852e-01 -5.069884619258142600e-01 -1.190630568610675510e-01 2.955091834618985835e-01 -8.510998112443721522e-03 9.898904584970239506e-01 0.000000000000000000e+00 0.000000000000000000e+00 0.000000000000000000e+00
4.444444444444444614e-02 -8.373216956546254419e-01 -3.301579262811326743e+00 8.247076243174972232e-01 -7.260142191705876158e-01 -3.899344088793699203e-01 9.416277613689674197e-01 0.000000000000000000e+00 0.000000000000000000e+00 0.000000000000000000e+00
4.444444444444444614e-02 6.992688720390468626e-01 4.538174969742764797e-01 5.338768699495905629e-02 -2.062128704886439401e+00 -2.645221726729617640e+00 9.240735388812877649e-02 0.000000000000000000e+00 0.000000000000000000e+00 0.000000000000000000e+00
4.444444444444444614e-02 -5.137825068449193289e-01 -3.120815279245684470e-01 -1.944432989470189943e+00 -5.239506753003256856e-01 -1.509591003998037861e-01 8.455901292533937186e-01 0.000000000000000000e+00 0.000000000000000000e+00 0.000000000000000000e+00
4.444444444444444614e-02 7.331932428650316247e-01 1.704143790989584920e-02 5.909033375618483186e-01 5.430436576338588672e-01 5.681672066712199765e-02 -9.505002631313359818e-02 0.000000000000000000e+00 0.000000000000000000e+00 0.000000000000000000e+00
4.444444444444444614e-02 1.381495054052492844e+00 3.279761814776168370e-03 2.838313521534895356e-01 2.046447617172709954e+00 4.486965612569285278e-01 1.599804345864229427e-01 0.000000000000000000e+00 0.000000000000000000e+00 0.000000000000000000e+00
4.444444444444444614e-02 -3.764511198348987620e-01 -9.012332340284568977e-01 6.194828124280564452e-02 3.660670005918518211e-01 -6.639255023650256771e-01 4.869790527674605629e-01 0.000000000000000000e+00 0.000000000000000000e+00 0.000000000000000000e+00
4.444444444444444614e-02 1.116032623423499182e+00 2.532764967599946404e-01 -5.963172212949229278e-01 -4.438040640010798010e-01 -6.705672577822950897e-01 -9.957905731038063646e-01 0.000000000000000000e+00 0.000000000000000000e+00 0.000000000000000000e+00
4.444444444444444614e-02 -1.811002910445109748e+00 -1.521879038353721514e+00 -1.156966819765387733e+00 -9.491513053169405856e-01 -1.232792195034157823e+00 3.043296345615186249e-01 0.000000000000000000e+00 0.000000000000000000e+00 0.000000000000000000e+00
4.444444444444444614e-02 -1.508760495098092902e-01 -1.244183421795574063e+00 -1.990281701820413585e-01 5.117494473749979456e-01 -5.410997133897694766e-01 -4.215232027931622993e-01 0.000000000000000000e+00 0.000000000000000000e+00 0.000000000000000000e+00
4.444444444444444614e-02 -6.697949396169897707e-01 -2.343792234557485338e-02 -2.722680668012175675e-01 1.829973297223466133e+00 5.416613249278638964e-01 9.899217916836374753e-01 0.000000000000000000e+00 0.000000000000000000e+00 0.000000000000000000e+00
4.444444444444444614e-02 -2.139579432500926526e+00 -4.854345052653415149e-02 -7.521811364053244686e-01 -3.196983512062318011e-02 8.115287573006708666e-01 -3.647369710438162493e-01 0.000000000000000000e+00 0.000000000000000000e+00 0.000000000000000000e+00
4.444444444444444614e-02 -3.539339510905932684e+00 1.529586946624610810e+00 -1.314758870346879549e+00 -1.254084176351561331e+00 -1.216941235428877999e+00 -8.648637146997931735e-01 0.000000000000000000e+00 0.000000000000000000e+00 0.000000000000000000e+00
4.444444444444444614e-02 2.392415646082123870e-01 -8.785888223031697031e-01 1.660423863144390444e-01 2.912645324426685889e-01 -2.160130755783876977e-01 -7.369346899438470322e-01 0.000000000000000000e+00 0.000000000000000000e+00 0.000000000000000000e+00
4.444444444444444614e-02 -2.224580320173099590e+00 8.708880536272963768e-01 8.428702658936854109e-01 -2.996595028694621146e-02 -2.374037965070389777e+00 1.105905252294008267e+00 0.000000000000000000e+00 0.000000000000000000e+00 0.000000000000000000e+00
4.444444444444444614e-02 1.895620727506289516e+00 -2.478616344097210433e+00 -1.465562671374264214e+00 -1.275952746035342145e+00 1.800228295243394561e-02 -1.791919370346545470e+00 0.000000000000000000e+00 0.000000000000000000e+00 0.000000000000000000e+00
4.444444444444444614e-02 -3.096054534366378674e-01 -3.002107581327753683e-01 1.815202827406705355e+00 8.941797453282734898e-02 -4.979834208832695785e-01 -9.315715102934329916e-01 0.000000000000000000e+00 0.000000000000000000e+00 0.000000000000000000e+00
4.444444444444444614e-02 -4.342834463707700987e-01 -1.528395769215381783e+00 -1.538287209434861802e-01 2.799971609796459981e-01 -9.374329515883187414e-01 1.052610433442024984e+00 0.000000000000000000e+00 0.000000000000000000e+00 0.000000000000000000e+00
4.444444444444444614e-02 -1.764623185839726827e-02 3.442403964862641441e-01 -5.705544060359269976e-01 -2.923494822059144460e-01 6.878735050670391482e-01 -5.615388830745174920e-01 0.000000000000000000e+00 0.000000000000000000e+00 0.000000000000000000e+00
4.444444444444444614e-02 -8.490745833044143209e-01 -1.404857445939259319e-01 -5.203606280471243517e-01 4.722181078162465129e-01 6.760129535211862883e-01 -1.085171782570250598e-01 0.000000000000000000e+00 0.000000000000000000e+00 0.000000000000000000e+00
4.444444444444444614e-02 6.468269508567231485e-01 -7.393215054973258926e-01 2.361780788368646744e-01 1.907114770336177045e+00 1.004572742556770981e+00 7.034873149676555693e-02 0.000000000000000000e+00 0.000000000000000000e+00 0.000000000000000000e+00
4.444444444444444614e-02 1.971037105748699447e-01 1.420234523005401706e-01 1.521043088745746896e+00 -5.725041681566518381e-01 -5.304565302879084010e-01 5.581957503770922369e-01 0.000000000000000000e+00 0.000000000000000000e+00 0.000000000000000000e+00
4.444444444444444614e-02 2.166781285920099442e+00 1.461555792607652116e+00 1.447714328315676591e+00 1.720678929437829408e-01 -3.435341132472604087e-01 -1.467967643958880020e+00 0.000000000000000000e+00 0.000000000000000000e+00 0.000000000000000000e+00
4.444444444444444614e-02 -4.035006421559149126e-01 8.550657268926713517e-01 -1.113657172911270532e+00 -1.880224689147330097e-01 -6.643273496953820967e-01 1.160702981004817502e+00 0.000000000000000000e+00 0.000000000000000000e+00 0.000000000000000000e+00
4.444444444444444614e-02 -1.455081496203846969e+00 -2.574635714981134971e-01 -5.049322982488072681e-02 4.046225537947743534e-01 -2.470835383415387998e+00 -5.761346194142562271e-02 0.000000000000000000e+00 0.000000000000000000e+00 0.000000000000000000e+00
4.444444444444444614e-02 -2.130214876859386763e-01 6.465211415547787999e-01 -1.347199433713538674e+00 -1.599294684953879442e-01 1.040712597075782009e+00 5.676742538792646231e-01 0.000000000000000000e+00 0.000000000000000000e+00 0.000000000000000000e+00
4.444444444444444614e-02 -4.368447509411405583e-01 9.361484613367046514e-02 -5.474551717463492784e-01 1.816568157810076745e-01 -2.456129718048016830e+00 2.032108869735569368e+00 0.000000000000000000e+00 0.000000000000000000e+00 0.000000000000000000e+00
4.444444444444444614e-02 2.344172057888501137e-01 1.321586330521070218e+00 -1.377434691492082086e+00 1.879373041810552314e+00 3.857167586450200303e-01 3.033564440764031089e-01 0.000000000000000000e+00 0.000000000000000000e+00 0.000000000000000000e+00
4.444444444444444614e-02 -5.774672294257871680e-02 2.166639801942816732e-02 -7.542567100966384164e-01 9.229175409119164675e-01 -2.706096823501442580e-02 -2.322700967734532274e+00 0.000000000000000000e+00 0.000000000000000000e+00 0.000000000000000000e+00
4.444444444444444614e-02 -1.651981629755535197e+00 5.386285468267506538e-01 -6.714216453233364801e-01 -8.822805466500200922e-01 1.382603789835723240e-01 -8.566893228314548248e-01 0.000000000000000000e+00 0.000000000000000000e+00 0.000000000000000000e+00
4.444444444444444614e-02 -1.637049597165437520e+00 3.717664287438586235e-01 9.800411084637363768e-01 -1.182039975451009362e+00 -2.353330418330302987e+00 -1.157267362730928784e-01 0.000000000000000000e+00 0.000000000000000000e+00 0.000000000000000000e+00
4.444444444444444614e-02 -1.475842682978790288e+00 7.389952557530660160e-01 -8.177039722451949766e-01 9.042601860340110376e-01 1.166794177098074536e+00 -3.686298561207045910e-01 0.000000000000000000e+00 0.000000000000000000e+00 0.000000000000000000e+00
4.444444444444444614e-02 5.830616967874199252e-01 -5.611340511074464077e-02 6.106949186113328487e-01 2.495025528724021877e-02 6.857253166811945189e-01 -9.775227217292485893e-01 0.000000000000000000e+00 0.000000000000000000e+00 0.000000000000000000e+00
4.444444444444444614e-02 1.010473311724703116e+00 -3.453465063618271214e-01 -9.978627484832953698e-01 1.235633639860717475e-01 -2.168849598261251899e+00 -4.979304769617172721e-01 0.000000000000000000e+00 0.000000000000000000e+00 0.000000000000000000e+00
4.444444444444444614e-02 -6.216857870656780638e-02 6.299531881843243308e-01 -1.233698238212568743e+00 -1.609640865360194129e+00 -1.422046258743745240e+00 -4.790913835105631291e-03 0.000000000000000000e+00 0.000000000000000000e+00 0.000000000000000000e+00
4.444444444444444614e-02 1.257880542532012758e+00 1.747930328670860511e+00 -8.032766720520263803e-02 8.718101781149296681e-01 -1.690684320307742849e+00 9.625875229099029040e-02 0.000000000000000000e+00 0.000000000000000000e+00 0.000000000000000000e+00
4.444444444444444614e-02 2.836921034870802383e-01 -1.578310554107624497e-01 2.450858778793520432e-01 6.270495358556805732e-01 -2.128502703619172376e+00 4.962715449920757638e-01 0.000000000000000000e+00 0.000000000000000000e+00 0.000000000000000000e+00
4.444444444444444614e-02 -1.992552976333903603e+00 3.716391655904106028e-01 -1.444302728231434019e+00 1.588423567979838191e+00 -8.249811311315727869e-01 2.502594652161659883e-01 0.000000000000000000e+00 0.000000000000000000e+00 0.000000000000000000e+00
4.444444444444444614e-02 4.043718095126154211e-01 -5.140666411780565603e-01 -8.762686888883088887e-01 2.398161327036942847e-01 1.012744042093700836e+00 1.987992169494409378e+00 0.000000000000000000e+00 0.000000000000000000e+00 0.000000000000000000e+00
4.444444444444444614e-02 1.852363740099216283e-01 6.210372296063976227e-01 -7.578817060052034371e-03 1.717838029013421419e+00 -1.088285053212259879e+00 1.576903886333141491e+00 0.000000000000000000e+00 0.000000000000000000e+00 0.000000000000000000e+00
4.444444444444444614e-02 -1.187203957360926987e+00 -2.167487899624877257e-03 1.003556058286160901e+00 1.406265890626918313e+00 1.117018030337016077e+00 -6.339998640134058006e-01 0.000000000000000000e+00 0.000000000000000000e+00 0.000000000000000000e+00
4.444444444444444614e-02 -9.160826406045974313e-01 -7.811861911891648802e-01 9.434988575991359872e-01 -9.918951358653700368e-01 7.374056066235934459e-01 2.258656798885869676e-01 0.000000000000000000e+00 0.000000000000000000e+00 0.000000000000000000e+00
4.444444444444444614e-02 -3.311474514838210204e-01 -4.163048013960183868e-01 4.386515187373912217e-01 1.966838963562292264e+00 -5.188149048829170384e-01 -4.451286222859123232e-01 0.000000000000000000e+00 0.000000000000000000e+00 0.000000000000000000e+00
4.444444444444444614e-02 1.049576083340658522e-01 8.243117707986570286e-01 2.276413043351722454e+00 -3.747182541041190751e-01 -5.824718642162648452e-01 -5.738506542413684963e-01 0.000000000000000000e+00 0.000000000000000000e+00 0.000000000000000000e+00
4.444444444444444614e-02 -1.191618270789676304e+00 -1.028611395965173481e+00 1.103712351272180925e+00 -9.163212483698662814e-01 1.333819461364517567e+00 7.400537957041421200e-02 0.000000000000000000e+00 0.000000000000000000e+00 0.000000000000000000e+00
4.444444444444444614e-02 -3.753625401710316001e-01 2.661150940268887655e-01 -8.826754648994707964e-01 -4.848379469300653777e-01 2.027056421509542683e-01 3.057125571538597542e-01 0.000000000000000000e+00 0.000000000000000000e+00 0.000000000000000000e+00
4.444444444444444614e-02 -5.695177380911389253e-01 7.587446162613638023e-01 -1.182878981982242506e+00 5.602493676822277724e-01 5.346161384011228757e-01 -1.026817211988820810e+00 0.000000000000000000e+00 0.000000000000000000e+00 0.000000000000000000e+00
4.444444444444444614e-02 1.470445677263249262e+00 -2.139931433931553106e-01 -1.183716917123358803e+00 1.114010907474977108e+00 2.418281778770770440e+00 -2.438979127671766778e-01 0.000000000000000000e+00 0.000000000000000000e+00 0.000000000000000000e+00
4.444444444444444614e-02 1.149459619151234291e+00 1.500256321331419340e-01 1.951803988024265690e+00 4.828388944111139391e-01 -2.698903881676123495e-01 -1.015027662226331673e+00 0.000000000000000000e+00 0.000000000000000000e+00 0.000000000000000000e+00
4.444444444444444614e-02 3.321230556242237286e-01 -1.074461817619461801e+00 3.287782299755718229e-01 -5.945520188020815555e-02 1.234008560272217947e+00 1.580222594287860938e+00 0.000000000000000000e+00 0.000000000000000000e+00 0.000000000000000000e+00
4.444444444444444614e-02 3.273115201920162587e-01 -1.270595721674027678e-01 2.330258786643544244e-01 -2.769524955623778317e-01 -3.954636332813730171e-01 -2.103269087210499322e+00 0.000000000000000000e+00 0.000000000000000000e+00 0.000000000000000000e+00
4.444444444444444614e-02 -4.597466037467010658e-01 2.544444630829094112e-01 -5.476728567120733304e-01 -3.195167827294906893e-01 4.284399843947944153e-01 5.370912303390785736e-01 0.000000000000000000e+00 0.000000000000000000e+00 0.000000000000000000e+00
4.444444444444444614e-02 -6.363618206731302962e-01 -1.640570961036383890e+00 -1.144034170035835851e+00 -9.931573612682174090e-01 -4.070398455573764895e-01 -7.597715314788398011e-01 0.000000000000000000e+00 0.000000000000000000e+00 0.000000000000000000e+00
4.444444444444444614e-02 -2.725518977323484471e-01 -2.163161263312287641e+00 1.232575135009371381e-03 9.729931272894477567e-01 7.957590098461828632e-01 -7.788141337826832711e-01 0.000000000000000000e+00 0.000000000000000000e+00 0.000000000000000000e+00
4.444444444444444614e-02 -1.246931073317894129e-01 -1.963111098264802012e-01 -8.541998555823101524e-01 4.117723267867923198e-02 2.114136654867655452e+00 1.728252826333219527e+00 0.000000000000000000e+00 0.000000000000000000e+00 0.000000000000000000e+00
4.444444444444444614e-02 8.049920950627514893e-01 -2.558524829232046716e-01 1.202269488808089593e+00 6.014048198213451935e-01 -1.531888310913826767e-01 -9.248999620171292069e-01 0.000000000000000000e+00 0.000000000000000000e+00 0.000000000000000000e+00
4.444444444444444614e-02 5.847092017106318984e-01 -9.393526851888908125e-01 1.086851923653886942e+00 -3.542823496575926989e-01 -1.247594133190946142e+00 -9.149744134963159192e-01 0.000000000000000000e+00 0.000000000000000000e+00 0.000000000000000000e+00
4.444444444444444614e-02 -1.357307227585625720e+00 -9.355830023207168944e-01 6.812824159637126398e-01 2.118512603253572268e-01 5.662450208632642257e-01 3.066540517279281453e-01 0.000000000000000000e+00 0.000000000000000000e+00 0.000000000000000000e+00
4.444444444444444614e-02 1.063096421318489693e+00 1.691861689698650473e+00 1.519409223252456753e+00 -5.111868803283462492e-01 2.513807243669121880e-02 8.285610171662532997e-01 0.000000000000000000e+00 0.000000000000000000e+00 0.000000000000000000e+00
4.444444444444444614e-02 -3.162171074778256097e-01 -7.502362640430925156e-01 3.767737509778845001e-02 3.591250843624577138e-01 -8.953652966646317990e-02 -2.601262857586483790e-01 0.000000000000000000e+00 0.000000000000000000e+00 0.000000000000000000e+00
4.444444444444444614e-02 -2.107742059152604985e-01 1.555313987102285189e+00 -8.058073175927740195e-01 -1.464157408424107354e+00 9.130339096811761479e-01 1.200442737562924453e-02 0.000000000000000000e+00 0.000000000000000000e+00 0.000000000000000000e+00
4.444444444444444614e-02 -1.183414448826319854e+00 1.576756101498997253e-01 5.895434485009382053e-01 -2.364149927276673890e-01 1.163941797401919054e+00 1.912802311236761810e+00 0.000000000000000000e+00 0.000000000000000000e+00 0.000000000000000000e+00
4.444444444444444614e-02 -1.160379204137449882e+00 2.235107236221207661e-01 7.672070999564797877e-02 -1.985373222737317755e+00 -1.191575031715298993e-01 -8.907553921338156044e-01 0.000000000000000000e+00 0.000000000000000000e+00 0.000000000000000000e+00
4.444444444444444614e-02 -1.147144752368568055e+00 -1.376885427177839405e-01 -1.045081005845178934e+00 -4.927341986910280941e-03 -8.188342327971561696e-01 1.369289568101042853e+00 0.000000000000000000e+00 0.000000000000000000e+00 0.000000000000000000e+00
4.444444444444444614e-02 -1.648192927800603780e+00 -1.671910041916625442e-02 2.243994069165808347e-02 -5.348443397432465218e-01 -1.161902892603479343e+00 -7.514021501216399113e-01 0.000000000000000000e+00 0.000000000000000000e+00 0.000000000000000000e+00
4.444444444444444614e-02 -1.297634495145334910e+00 1.692781066255661521e-02 -1.328007412273576104e+00 -1.238944115362323739e-01 7.453211936506614066e-01 -5.985004286755807312e-01 0.000000000000000000e+00 0.000000000000000000e+00 0.000000000000000000e+00
4.444444444444444614e-02 1.956354064817907190e+00 1.212099080382299077e+00 -8.784278259716482573e-02 -2.598628935376796623e-01 5.693749639336592727e-01 2.061724552439963554e-01 0.000000000000000000e+00 0.000000000000000000e+00 0.000000000000000000e+00
4.444444444444444614e-02 3.114650852867022479e-01 1.888541497070379549e+00 -3.977563704424905491e-03 -4.874009708682075503e-01 1.395169351748390296e+00 4.082266782017742734e-01 0.000000000000000000e+00 0.000000000000000000e+00 0.000000000000000000e+00
4.444444444444444614e-02 1.235456791985602543e+00 1.568769929195000357e+00 -1.240840851552657220e+00 8.419281626701141663e-01 2.996600559766356975e-01 -2.254263422609337764e-01 0.000000000000000000e+00 0.000000000000000000e+00 0.000000000000000000e+00
4.444444444444444614e-02 3.796059625447003594e-01 -1.526717399319437396e+00 -7.216044548605095033e-01 5.499135872180156426e-01 6.358770804460581738e-01 2.773099546671566745e-03 0.000000000000000000e+00 0.000000000000000000e+00 0.000000000000000000e+00
4.444444444444444614e-02 -9.346463042613246952e-02 -1.052870098478687400e+00 -4.633299416132889426e-01 7.748649452667043525e-01 -8.482281256646081458e-01 -1.692253733156255657e-01 0.000000000000000000e+00 0.000000000000000000e+00 0.000000000000000000e+00
4.444444444444444614e-02 9.801848224364733547e-03 -1.033417449340799932e+00 -1.562838945595537821e+00 1.555182948637291673e+00 3.540681736076501940e-01 6.211435258272864912e-01 0.000000000000000000e+00 0.000000000000000000e+00 0.000000000000000000e+00
4.444444444444444614e-02 -1.113367033974224318e+00 -4.560750310581838662e-01 -2.210025228625585925e+00 -4.129674744901558614e-01 -1.341350119035306987e+00 -3.402400253479680448e+00 0.000000000000000000e+00 0.000000000000000000e+00 0.000000000000000000e+00
4.444444444444444614e-02 5.261367863075655515e-01 6.728589349153354382e-01 -1.243477857374860052e-01 5.241999596083878055e-02 5.834428455907948452e-01 -1.585280617713235030e-01 0.000000000000000000e+00 0.000000000000000000e+00 0.000000000000000000e+00
4.444444444444444614e-02 5.888146454176255984e-02 -2.109895750469625297e-01 2.036138966293644881e+00 -9.688098326848537667e-02 3.324150837367617628e-01 5.319357263803285996e-01 0.000000000000000000e+00 0.000000000000000000e+00 0.000000000000000000e+00
4.444444444444444614e-02 -1.885522230025878376e-01 -2.136106568097609237e+00 1.843231134481920774e-01 -1.259895686616759658e+00 1.060459738809180555e-02 4.183997667963521017e-01 0.000000000000000000e+00 0.000000000000000000e+00 0.000000000000000000e+00
4.444444444444444614e-02 6.468389116149400042e-01 -8.756973381776667065e-02 -1.254506877579635860e-01 8.101195904405042447e-02 7.994428742662089693e-01 -1.137383565359849635e+00 0.000000000000000000e+00 0.000000000000000000e+00 0.000000000000000000e+00
4.444444444444444614e-02 -1.449448126654282742e-01 2.205901489582041020e+00 5.291011354622432439e-01 -1.026145616941077865e+00 3.614531343424921550e-01 1.234125126816348228e+00 0.000000000000000000e+00 0.000000000000000000e+00 0.000000000000000000e+00
4.444444444444444614e-02 6.461799231074537575e-01 -1.430439507485523620e+00 -2.423226341353764413e-01 -8.381928097375893616e-01 -1.702485397807076417e-01 -1.666583831045154174e+00 0.000000000000000000e+00 0.000000000000000000e+00 0.000000000000000000e+00
4.444444444444444614e-02 -8.652651643972851803e-01 6.319937465769389640e-01 2.279904275977100853e-02 1.738570071361947411e+00 3.898573543161347188e-01 -1.956769194539156098e+00 0.000000000000000000e+00 0.000000000000000000e+00 0.000000000000000000e+00
4.444444444444444614e-02 2.186377802464154474e+00 -1.002606198291538409e+00 -1.270489606418093498e+00 8.309784764285181868e-01 2.554941798446364043e-01 6.839501499387825589e-01 0.000000000000000000e+00 0.000000000000000000e+00 0.000000000000000000e+00
4.444444444444444614e-02 -2.059500851208577801e-02 -3.040594814387784783e-01 2.056130574299239178e-02 -4.709933575595426913e-01 -1.453444978053983982e+00 5.009067585521386201e-01 0.000000000000000000e+00 0.000000000000000000e+00 0.000000000000000000e+00
4.444444444444444614e-02 -7.037136514260103892e-01 -7.196455342493514040e-01 2.510066417853029086e-01 1.160283549981279139e+00 -1.365627056637416792e-01 -9.967751517222929181e-01 0.000000000000000000e+00 0.000000000000000000e+00 0.000000000000000000e+00
4.444444444444444614e-02 -6.766092350871748540e-01 6.905001056735106113e-01 -3.731107339267631384e-01 -1.383314987840401633e-01 -2.590188053088708364e-01 1.252763958501360353e+00 0.000000000000000000e+00 0.000000000000000000e+00 0.000000000000000000e+00
4.444444444444444614e-02 -2.748360375654910204e+00 -1.340000536883223792e-01 1.444145252049793049e+00 -4.850248224507585637e-01 -1.458733917564577487e-01 -2.350297022300114891e-01 0.000000000000000000e+00 0.000000000000000000e+00 0.000000000000000000e+00
4.444444444444444614e-02 9.791741255353630935e-01 3.172884964761368831e+00 5.080368314355406811e-01 8.249920220796338466e-01 2.124613478750474460e+00 -1.214491902758190189e+00 0.000000000000000000e+00 0.000000000000000000e+00 0.000000000000000000e+00
4.444444444444444614e-02 1.945053359062376766e-02 1.083903843626792263e+00 7.461850103340561535e-01 1.862190161604365679e-01 -1.944658927510594548e+00 7.060399024692365355e-01 0.000000000000000000e+00 0.000000000000000000e+00 0.000000000000000000e+00
4.444444444444444614e-02 1.194184925629027116e+00 -3.929919380825312447e-01 3.716680767469997954e-02 -5.957518925169459356e-01 -4.907202881311562015e-01 1.943081407846247055e+00 0.000000000000000000e+00 0.000000000000000000e+00 0.000000000000000000e+00
4.444444444444444614e-02 -6.226220479870928637e-01 -1.517415907629832805e+00 2.060701679172514122e+00 -8.335657181047986253e-01 -2.044175583092888437e-01 8.088511906011152108e-01 0.000000000000000000e+00 0.000000000000000000e+00 0.000000000000000000e+00
4.444444444444444614e-02 1.165609241203777291e+00 1.576257694340457371e+00 -2.306412383433157631e-01 -1.584762458078932790e+00 1.787162861925243040e-01 1.052638975596055237e+00 0.000000000000000000e+00 0.000000000000000000e+00 0.000000000000000000e+00
4.444444444444444614e-02 -2.838697627341743024e-01 -6.282380154031691477e-01 3.219617845192350725e-01 -1.029415523639679142e+00 -4.169954708710961744e-01 -2.046665988245774059e+00 0.000000000000000000e+00 0.000000000000000000e+00 0.000000000000000000e+00
4.444444444444444614e-02 -2.736647996517627135e-01 3.718523525070974167e-01 1.716872305435274804e+00 3.989772054083154940e-01 -3.808264987686352798e-01 1.887406728175112236e-01 0.000000000000000000e+00 0.000000000000000000e+00 0.000000000000000000e+00
4.444444444444444614e-02 1.700527940319477516e+00 -2.568002999952059828e-01 -5.463563621812410620e-01 9.031441834234269495e-01 -7.494071576340342045e-01 -2.098887680219823082e-01 0.000000000000000000e+00 0.000000000000000000e+00 0.000000000000000000e+00
4.444444444444444614e-02 -5.996643141051695158e-01 6.166437020079602593e-01 2.274210034208950793e-01 -1.521290411687749033e+00 -1.275051272701892113e+00 1.867426995248392188e-02 0.000000000000000000e+00 0.000000000000000000e+00 0.000000000000000000e+00
4.444444444444444614e-02 2.586155172884821996e-01 -1.770052737834569845e+00 2.366055700597088363e-01 1.201202685991561658e+00 4.977793505800359730e-01 -4.226595852677859921e-02 0.000000000000000000e+00 0.000000000000000000e+00 0.000000000000000000e+00
4.444444444444444614e-02 3.585754544441722702e-01 -3.432726682602610935e-01 -1.397746685473586048e+00 -4.679264299923663328e-01 7.131929454228074228e-01 -8.421927568408661413e-01 0.000000000000000000e+00 0.000000000000000000e+00 0.000000000000000000e+00
4.444444444444444614e-02 -1.618997221902683803e+00 1.599732745063636941e+00 -7.147702879496398154e-01 1.115218485096277412e+00 1.524618856777119891e-01 -2.355688580987325143e+00 0.000000000000000000e+00 0.000000000000000000e+00 0.000000000000000000e+00
4.444444444444444614e-02 1.346644035320822663e+00 -5.129408563883601779e-01 6.799766113082255092e-01 1.286839483504016668e+00 -7.261356831826240033e-01 6.605383056405800257e-01 0.000000000000000000e+00 0.000000000000000000e+00 0.000000000000000000e+00
4.444444444444444614e-02 -4.558865341020376105e-01 1.433055083389153994e+00 2.513562451167101197e-01 1.152067391524639994e+00 -1.388583542416439720e-01 6.847606670032927445e-01 0.000000000000000000e+00 0.000000000000000000e+00 0.000000000000000000e+00
4.444444444444444614e-02 3.244651717527938413e-03 1.217607817346768151e+00 2.088968176144017364e-01 5.002782230388603812e-01 7.200280311873544781e-01 -1.375216410963664648e+00 0.000000000000000000e+00 0.000000000000000000e+00 0.000000000000000000e+00
4.444444444444444614e-02 -1.400994713310528272e-01 2.315801342254385498e-01 1.114411650708201140e+00 -8.069023015901132245e-01 -9.933717949787653767e-01 -1.181127800475175738e-01 0.000000000000000000e+00 0.000000000000000000e+00 0.000000000000000000e+00
4.444444444444444614e-02 7.003983904343400457e-01 6.181017942133434362e-01 -1.237894664687694712e+00 -3.606750333421550603e-01 -2.874950932031836159e-01 -8.218152810174723655e-01 0.000000000000000000e+00 0.000000000000000000e+00 0.000000000000000000e+00
4.444444444444444614e-02 -4.980739729233608082e-01 -6.939843475494580360e-01 -3.266979156370202753e-01 -1.517062480843265893e-01 1.381254812991663750e+00 7.930967054476598110e-02 0.000000000000000000e+00 0.000000000000000000e+00 0.000000000000000000e+00
4.444444444444444614e-02 -1.412112053325516481e+00 4.920779655061308100e-01 -1.682195473919466736e-02 -2.082904664597107658e+00 -7.811914317637694283e-02 -1.243677566198738038e+00 0.000000000000000000e+00 0.000000000000000000e+00 0.000000000000000000e+00
4.444444444444444614e-02 -8.107822159004547391e-01 5.383866750351679054e-01 1.083723804029772975e+00 -2.069344028954022807e+00 7.062588291254235928e-01 -4.602037195582642792e-01 0.000000000000000000e+00 0.000000000000000000e+00 0.000000000000000000e+00
4.444444444444444614e-02 9.716240727412294165e-01 -4.705620111570333330e-01 1.017276368320449986e+00 -1.183578641441446866e+00 -8.447908940917091547e-01 3.601767687659298556e-01 0.000000000000000000e+00 0.000000000000000000e+00 0.000000000000000000e+00
4.444444444444444614e-02 -1.149487957068038302e+00 3.351570071418833674e+00 8.729200528047513785e-01 3.408591441197686422e-01 -2.282567020501305444e-01 2.039284485600088848e-01 0.000000000000000000e+00 0.000000000000000000e+00 0.000000000000000000e+00
4.444444444444444614e-02 1.183117256908718051e+00 7.964166325242041378e-01 -4.312988200566342245e-02 8.342584721537907311e-02 1.008778196640104596e+00 1.205443364039829435e+00 0.000000000000000000e+00 0.000000000000000000e+00 0.000000000000000000e+00
4.444444444444444614e-02 -9.284800390758740640e-02 1.510534417922327066e-01 1.701311402611504375e+00 -1.172186413244485248e+00 1.267412680280776360e+00 9.152398244795457716e-01 0.000000000000000000e+00 0.000000000000000000e+00 0.000000000000000000e+00
4.444444444444444614e-02 -5.892821269471232304e-01 -9.473272102371600722e-02 -3.827258538602511251e-02 -4.149840723168887191e-01 -4.944667459107302543e-01 -4.110178637465669027e-01 0.000000000000000000e+00 0.000000000000000000e+00 0.000000000000000000e+00
4.444444444444444614e-02 -9.708031649920478845e-01 -8.641866473655744896e-01 -7.374152338783176996e-02 -4.073814791498995835e-01 5.825737846623321170e-01 2.166245428824640218e+00 0.000000000000000000e+00 0.000000000000000000e+00 0.000000000000000000e+00
4.444444444444444614e-02 -6.860845729887865563e-01 -1.283548191903874369e-01 -4.134634395486109226e-01 -2.320069748976751056e-01 -3.165330029305135628e-02 -3.847688854630149091e-01 0.000000000000000000e+00 0.000000000000000000e+00 0.000000000000000000e+00
4.444444444444444614e-02 1.131102755752911859e+00 1.124391710500262764e+00 1.180028370537988369e+00 1.092909665759181248e+00 -4.170737394608355353e-01 1.702854300640353757e-01 0.000000000000000000e+00 0.000000000000000000e+00 0.000000000000000000e+00
4.444444444444444614e-02 -6.040077073624440240e-01 1.554736609660479996e+00 1.784753474096098635e+00 -1.181835230687932059e+00 -2.060719967372833528e-01 2.134931852942883179e-01 0.000000000000000000e+00 0.000000000000000000e+00 0.000000000000000000e+00
4.444444444444444614e-02 7.862543955730791345e-02 -5.245553352374697775e-01 1.211485628179839402e+00 2.263307311461701499e+00 -1.107118603106028942e+00 -6.356114167226283307e-01 0.000000000000000000e+00 0.000000000000000000e+00 0.000000000000000000e+00
4.444444444444444614e-02 1.264155157236915850e-01 4.500479443053665429e-01 6.307780041346606748e-01 -2.348732136898707690e-01 1.360706303153884189e+00 -4.404413174230097927e-01 0.000000000000000000e+00 0.000000000000000000e+00 0.000000000000000000e+00
4.444444444444444614e-02 -2.363466016559561678e-01 -2.353807240587127703e-01 3.982079799975332124e-01 -1.207123130128786803e+00 -4.586493598994274001e-01 2.000979307033547538e+00 0.000000000000000000e+00 0.000000000000000000e+00 0.000000000000000000e+00
