# Total Kinetic Energy: 24469.599636106446 J
# Total Potential Energy: -32113.33663273409 J
# Total Energy: -7643.736996627642 J
# mass x y z vx vy vz ax ay az
1.000000000000000056e-01 1.616912511138976771e-01 -3.933057883088493800e-01 3.450387844853270575e-02 -2.181584087202546485e+00 -1.839017303030412998e-01 9.104075023904091291e-01 0.000000000000000000e+00 0.000000000000000000e+00 0.000000000000000000e+00
1.000000000000000056e-01 -5.616213645228665952e-01 7.187085465708281662e-01 -8.777600197352789513e-01 7.728806357015858275e-01 -7.471362810731766446e-01 9.643444544409469632e-01 0.000000000000000000e+00 0.000000000000000000e+00 0.000000000000000000e+00
1.000000000000000056e-01 1.753571798466946996e+00 7.794717327458379197e-01 8.197831855280515168e-01 -1.442882807977963200e+00 -5.795932412951435575e-01 -5.387604729177284391e-01 0.000000000000000000e+00 0.000000000000000000e+00 0.000000000000000000e+00
1.000000000000000056e-01 -1.188585106343800213e-01 -1.135848377498978046e+00 9.964069585518607886e-01 2.859471090985601927e-01 9.626945839475715694e-01 -1.000713086770393501e+00 0.000000000000000000e+00 0.000000000000000000e+00 0.000000000000000000e+00
1.000000000000000056e-01 1.505588739664691922e-01 6.904516970237239981e-01 2.804846181425576512e-01 4.636909687903124855e+00 -1.741565848313368470e+00 1.423769592885062163e-01 0.000000000000000000e+00 0.000000000000000000e+00 0.000000000000000000e+00
1.000000000000000056e-01 9.286721243429699180e-02 9.327178088362508834e-01 -8.511725661863219772e-01 -8.452080887744273241e-02 -1.085518539731868293e+00 1.224075348159795462e+00 0.000000000000000000e+00 0.000000000000000000e+00 0.000000000000000000e+00
1.000000000000000056e-01 -3.487042828077552281e-01 8.588966112863494207e-02 -1.696231627309804368e-01 1.058595762235477133e+00 5.349753105130756331e-02 1.801978485454594769e-01 0.000000000000000000e+00 0.000000000000000000e+00 0.000000000000000000e+00
1.000000000000000056e-01 -9.280566901786946321e-01 2.549067333873297203e-01 -8.493142139665599277e-01 9.063550542953469069e-01 -2.376895340659275491e-01 7.976582025962222211e-01 0.000000000000000000e+00 0.000000000000000000e+00 0.000000000000000000e+00
1.000000000000000056e-01 1.072892722030602541e-01 1.387914774801037421e+00 6.530395713973393690e-01 1.777448219000536678e-01 -1.206972081257066121e+00 -5.760227278463629919e-01 0.000000000000000000e+00 0.000000000000000000e+00 0.000000000000000000e+00
1.000000000000000056e-01 -8.339200423939457929e-01 9.119627843502378095e-01 7.605628234350476913e-02 -2.397831083825073151e+00 -4.527892072092949000e-02 -1.125977625186910469e+00 0.000000000000000000e+00 0.000000000000000000e+00 0.000000000000000000e+00
1.000000000000000056e-01 5.906904951209130950e-01 2.029103676260969547e+00 -3.765624984665763009e-01 3.235362193179375900e+00 7.426556941193968697e+00 2.023245084751470912e+00 0.000000000000000000e+00 0.000000000000000000e+00 0.000000000000000000e+00
1.000000000000000056e-01 4.052047567098550629e-01 3.797499955230492774e-01 1.414125027237781884e+00 -2.071013670810482044e-01 -3.583023050172325918e-01 -1.179848000305918410e+00 0.000000000000000000e+00 0.000000000000000000e+00 0.000000000000000000e+00
1.000000000000000056e-01 3.747346446347669668e-01 -4.245142825399806918e-01 9.244339231312406757e-02 -1.497684723181461064e-01 1.046950099023995273e+00 5.501812463951620824e-01 0.000000000000000000e+00 0.000000000000000000e+00 0.000000000000000000e+00
1.000000000000000056e-01 8.391110305965532312e-01 -1.028681505022601694e+00 1.226641980841139512e+00 -6.297685040406969526e-01 1.056059477736525309e+00 -7.424283910790497876e-01 0.000000000000000000e+00 0.000000000000000000e+00 0.000000000000000000e+00
1.000000000000000056e-01 -1.536706900380783655e-02 4.994499994838775825e-01 -4.148076195350505063e-02 7.826711805179234482e-02 -8.249639549115463932e-01 1.933146912876321233e-01 0.000000000000000000e+00 0.000000000000000000e+00 0.000000000000000000e+00
1.000000000000000056e-01 -1.859422928172785594e-01 -1.110720969669698910e+00 9.892918319591290088e-02 7.382238905357315639e-01 1.874758163053007021e+00 1.900464540114552847e-01 0.000000000000000000e+00 0.000000000000000000e+00 0.000000000000000000e+00
1.000000000000000056e-01 1.343961640421763137e+00 2.021921001034059362e-01 -8.071891295787061438e-01 -9.314654445779644298e-01 -2.343933070620035919e-01 8.703310450888730454e-01 0.000000000000000000e+00 0.000000000000000000e+00 0.000000000000000000e+00
1.000000000000000056e-01 8.728578620602814864e-01 -1.864080166170256625e+00 -1.953761973941121832e+00 -2.071111779285318699e-01 4.349110767007619560e-01 3.959105293250206881e-01 0.000000000000000000e+00 0.000000000000000000e+00 0.000000000000000000e+00
1.000000000000000056e-01 5.761422160295932571e-01 -3.535489010646811897e-02 1.064783885811015213e-01 3.247984204372153516e-03 2.875908921503324556e-01 1.777885832974377411e+00 0.000000000000000000e+00 0.000000000000000000e+00 0.000000000000000000e+00
1.000000000000000056e-01 8.387734062605088636e-02 1.594884773117261956e+00 9.334050024589737871e-02 2.938829993680848185e-01 -8.487825030678639582e-01 7.579962564285958049e-02 0.000000000000000000e+00 0.000000000000000000e+00 0.000000000000000000e+00
1.000000000000000056e-01 1.730029428876964648e+00 -3.953227826679253099e-01 5.790171158078479818e-01 -1.082471846828862772e+00 3.830658900724006055e-01 -2.398595462442410786e-01 0.000000000000000000e+00 0.000000000000000000e+00 0.000000000000000000e+00
1.000000000000000056e-01 -6.738342237487220387e-01 -4.464787950094163405e-01 -8.217728981376534181e-01 9.787837754849434413e-01 7.725215050560303442e-01 2.673317329903554529e-01 0.000000000000000000e+00 0.000000000000000000e+00 0.000000000000000000e+00
1.000000000000000056e-01 1.410095372234796196e+00 7.103364100998135200e-01 7.216149911400046024e-01 -6.129428513467914952e-01 -8.733723945594010774e-01 -5.295181647559661364e-01 0.000000000000000000e+00 0.000000000000000000e+00 0.000000000000000000e+00
1.000000000000000056e-01 1.198089054109794938e-01 5.989624515247836678e-01 -5.206472757720395639e-02 3.360064914516199264e-01 -6.385183547363203482e-01 -1.634756353348362778e-01 0.000000000000000000e+00 0.000000000000000000e+00 0.000000000000000000e+00
1.000000000000000056e-01 4.156557870752722317e-01 1.487148433954736393e-01 1.161198617080834300e-01 -1.971719602350643807e+00 6.060386784090586731e-01 -7.428905202493947257e-01 0.000000000000000000e+00 0.000000000000000000e+00 0.000000000000000000e+00
1.000000000000000056e-01 4.762663248096186686e-01 -1.150182481033700244e+00 -2.523189945627922537e+00 -8.191195366656524313e-02 2.174688567045488519e-01 5.881259490597259276e-01 0.000000000000000000e+00 0.000000000000000000e+00 0.000000000000000000e+00
1.000000000000000056e-01 1.557891720568542471e-01 -5.572574354211078385e-01 9.633369454563768253e-01 8.680128842424528202e-01 2.241524994318556119e-01 2.788766050541239938e+00 0.000000000000000000e+00 0.000000000000000000e+00 0.000000000000000000e+00
1.000000000000000056e-01 6.529859236395920696e-01 1.139983162287607321e+00 -9.319183336382915739e-01 -5.916667085172888640e-01 -7.803975034856184267e-01 8.065884130738897317e-01 0.000000000000000000e+00 0.000000000000000000e+00 0.000000000000000000e+00
1.000000000000000056e-01 -6.420716769943112245e-01 -3.019265289025910626e+00 1.493351507029450520e+00 -6.964745651524120174e-01 -5.602106942761979624e+00 7.567229145652338396e+00 0.000000000000000000e+00 0.000000000000000000e+00 0.000000000000000000e+00
1.000000000000000056e-01 -1.686924420419512183e+00 8.632766004009538863e-01 6.497227523646930125e-01 7.936472474857276804e-01 -3.185509706327683266e-01 -3.503846516766722652e-01 0.000000000000000000e+00 0.000000000000000000e+00 0.000000000000000000e+00
1.000000000000000056e-01 7.728866771952480619e-01 6.701865179991737254e-01 -2.533041672478729467e+00 -1.767982325453097692e-01 -1.497227368721524288e-01 5.978824593606376636e-01 0.000000000000000000e+00 0.000000000000000000e+00 0.000000000000000000e+00
1.000000000000000056e-01 7.277618445243310141e-01 -9.495040090226931628e-01 -6.322688852275496485e-01 2.525083543725362034e+00 -6.575819858950793240e-01 -3.001520058214530273e+00 0.000000000000000000e+00 0.000000000000000000e+00 0.000000000000000000e+00
1.000000000000000056e-01 -1.007554117813236338e+01 -3.807045755017578248e+00 2.754113622507427195e+00 -2.097433852530517129e+01 -9.032799442143208069e+00 4.010392585029886270e+00 0.000000000000000000e+00 0.000000000000000000e+00 0.000000000000000000e+00
1.000000000000000056e-01 -1.793255718184930680e+00 1.678678803379793361e-01 -9.574491256702241104e-01 9.057304139005141197e-01 -8.312910722946331016e-03 3.970772611772535599e-01 0.000000000000000000e+00 0.000000000000000000e+00 0.000000000000000000e+00
1.000000000000000056e-01 3.047759184446527936e-01 1.632505181349515722e+00 2.248732860932620259e+00 1.636749898283940824e-02 -4.175323138598099892e-01 -5.905179747049180694e-01 0.000000000000000000e+00 0.000000000000000000e+00 0.000000000000000000e+00
1.000000000000000056e-01 5.951674067019838699e-01 -2.472642494680922787e-01 9.282044287616262324e-01 -7.778115196512568330e-01 -5.672913923249059964e-01 -1.643017967350113295e-02 0.000000000000000000e+00 0.000000000000000000e+00 0.000000000000000000e+00
1.000000000000000056e-01 -3.601447815732278929e-02 -8.386691885148248593e-01 1.946062890357462549e-01 6.766306208713673831e-01 1.599961433789581777e+00 2.377212649710282177e-01 0.000000000000000000e+00 0.000000000000000000e+00 0.000000000000000000e+00
1.000000000000000056e-01 -4.351649980113508898e-01 -7.547117482539162925e-01 5.865888483036302281e-01 1.212005164283610492e+00 8.605086251007020293e-01 -8.066130271735679758e-01 0.000000000000000000e+00 0.000000000000000000e+00 0.000000000000000000e+00
1.000000000000000056e-01 -2.436353335055852221e-01 -1.434122777935576520e+00 5.221136341725557406e-01 3.626425391890112371e-01 1.333646560339776688e+00 -4.514519151431191646e-01 0.000000000000000000e+00 0.000000000000000000e+00 0.000000000000000000e+00
1.000000000000000056e-01 5.513165290529836726e-01 -2.405890447872995608e-01 1.622287896263431561e-03 -2.215360188363363569e+00 1.625363810921757635e+00 1.363769133175314896e-01 0.000000000000000000e+00 0.000000000000000000e+00 0.000000000000000000e+00
1.000000000000000056e-01 9.092243067949621338e-01 -7.515290672939857475e-02 7.530668056501578500e-02 2.187802351197233597e-02 1.350266678631594885e+00 8.993367131882115117e-01 0.000000000000000000e+00 0.000000000000000000e+00 0.000000000000000000e+00
1.000000000000000056e-01 -3.399979925278031473e-02 5.435893688371985499e-01 2.634163257948892584e-02 -8.534220703404329367e-01 -1.242088167444415525e+00 7.676223436635285502e-01 0.000000000000000000e+00 0.000000000000000000e+00 0.000000000000000000e+00
1.000000000000000056e-01 -1.579008288982894692e+00 1.364716843256973844e+00 2.329987541802867490e+00 3.208343344214500403e-01 -2.070579790096863937e-01 -3.821780942109530566e-01 0.000000000000000000e+00 0.000000000000000000e+00 0.000000000000000000e+00
1.000000000000000056e-01 4.023589970778387870e-02 -1.699261048647057182e-01 -6.056096934727396297e-01 8.154938143384657390e-02 -3.190301717524607339e-02 1.609964658555971706e+00 0.000000000000000000e+00 0.000000000000000000e+00 0.000000000000000000e+00
1.000000000000000056e-01 1.280055891359006104e+00 5.151444168974622650e-02 -3.141259629602802250e-01 -1.395507401643125034e+00 -1.755297771678991300e-02 4.789017697894344394e-01 0.000000000000000000e+00 0.000000000000000000e+00 0.000000000000000000e+00
1.000000000000000056e-01 9.793279223461069660e-02 -9.882984584735930722e-02 -1.808563181012285082e+00 1.842433924814774193e-01 1.112109609768630047e+00 -1.856368654655765393e+00 0.000000000000000000e+00 0.000000000000000000e+00 0.000000000000000000e+00
1.000000000000000056e-01 7.810011072541696020e-01 4.718478261633392290e-02 1.252848609578889882e-01 1.788500465526614125e+00 -2.709106956794192778e-01 -8.843823402992513349e-01 0.000000000000000000e+00 0.000000000000000000e+00 0.000000000000000000e+00
1.000000000000000056e-01 1.829809584420728497e-01 -2.699440569699910197e-01 -3.937944885758322133e-01 3.823509467100875137e-01 1.945721682863936763e-01 6.586064373075455336e-01 0.000000000000000000e+00 0.000000000000000000e+00 0.000000000000000000e+00
1.000000000000000056e-01 -6.165748806674404836e-01 -4.908857421509427166e-01 -1.170822564731762938e+00 6.170837539944835637e-01 3.038907821046918367e-01 1.368778491369656347e+00 0.000000000000000000e+00 0.000000000000000000e+00 0.000000000000000000e+00
1.000000000000000056e-01 6.727960762951539220e-01 -6.456979716200924591e-01 1.146391147573371461e+00 -3.966275912081883570e-01 8.578658024656220515e-01 -1.248955973580607282e+00 0.000000000000000000e+00 0.000000000000000000e+00 0.000000000000000000e+00
1.000000000000000056e-01 2.783094866778854093e-02 1.563993532933743769e+00 -3.528160822412313991e+00 1.100729950814987035e+00 6.850401411349761105e+00 -6.180832798801978001e+00 0.000000000000000000e+00 0.000000000000000000e+00 0.000000000000000000e+00
1.000000000000000056e-01 -1.333392118742237308e-02 4.121273973862383255e-01 1.624716518816424093e+00 9.791044193931695006e-01 -8.109078159724856238e-01 -6.325989232938556972e-01 0.000000000000000000e+00 0.000000000000000000e+00 0.000000000000000000e+00
1.000000000000000056e-01 2.018196038943634862e-01 3.955393468546850033e-01 -4.864747089549985026e-01 -6.841778122003870921e-01 -6.058062556572868518e-01 1.197339116214263699e+00 0.000000000000000000e+00 0.000000000000000000e+00 0.000000000000000000e+00
1.000000000000000056e-01 -7.393750138136132022e-02 -8.385826353558131219e-01 8.808349235029311330e-02 4.534041980427067631e-01 9.152426138878428930e-01 2.596498106008651718e-01 0.000000000000000000e+00 0.000000000000000000e+00 0.000000000000000000e+00
1.000000000000000056e-01 5.667882010434734941e-01 -2.300344257939615222e-01 9.340571420540474401e-01 -2.833600849494224416e-01 8.476201158447866923e-01 -2.908414815092901229e+00 0.000000000000000000e+00 0.000000000000000000e+00 0.000000000000000000e+00
1.000000000000000056e-01 4.730778348859804305e-01 -6.483278181917455640e-01 1.707306669478655670e-01 -1.416019437734264086e+00 2.068476939321452157e+00 1.076053865586463487e-01 0.000000000000000000e+00 0.000000000000000000e+00 0.000000000000000000e+00
1.000000000000000056e-01 9.516026307641441306e+00 4.386102622174416155e+00 -1.226824802238383416e+00 2.149850487470530069e+01 8.707916137518035171e+00 -4.613972726488229092e+00 0.000000000000000000e+00 0.000000000000000000e+00 0.000000000000000000e+00
1.000000000000000056e-01 2.419602992018657708e-02 7.183609718810037847e-01 5.878680449923443518e-01 6.487586247845282816e-01 -8.683696500224229453e-01 -1.063368262306516820e+00 0.000000000000000000e+00 0.000000000000000000e+00 0.000000000000000000e+00
1.000000000000000056e-01 3.994741913065730232e-01 4.801419678074666519e-01 5.085641055569712909e-01 1.705144834384638708e-01 -4.316752786566400157e-01 -9.133118209729191861e-01 0.000000000000000000e+00 0.000000000000000000e+00 0.000000000000000000e+00
1.000000000000000056e-01 9.620667924423658146e-01 6.926683079540916221e-01 9.172598659908960395e-01 -6.919136098721585526e-01 -6.759714959854395966e-01 -1.059670588661924873e+00 0.000000000000000000e+00 0.000000000000000000e+00 0.000000000000000000e+00
1.000000000000000056e-01 6.219986437679842162e+00 2.506097820551719924e+00 -1.451687558449384241e+01 1.345637507959464507e+01 2.618176613219614701e+00 -3.027244968670303393e+01 0.000000000000000000e+00 0.000000000000000000e+00 0.000000000000000000e+00
1.000000000000000056e-01 1.045660448330417297e-01 -5.393379629007166720e-01 3.958788263095784354e-01 -2.980988820400952477e+00 7.742280324292602489e-02 -1.349295489574202866e+00 0.000000000000000000e+00 0.000000000000000000e+00 0.000000000000000000e+00
1.000000000000000056e-01 -9.516119711426180849e-01 -1.467394196954706909e-01 1.582021335419673935e+00 -1.391204719493515318e+00 9.488938742686461314e-01 2.073827749139836030e+00 0.000000000000000000e+00 0.000000000000000000e+00 0.000000000000000000e+00
1.000000000000000056e-01 1.545868220312301533e+00 -5.756915073798956062e-01 -9.073152795648453672e-01 -8.167602507615930874e-01 4.065934108282917570e-01 5.887391978260214653e-01 0.000000000000000000e+00 0.000000000000000000e+00 0.000000000000000000e+00
1.000000000000000056e-01 -3.468334733808013937e-01 -4.871270440281730840e-01 2.702998844988957483e-01 1.572343667798528744e+00 3.436557769450445665e-01 -2.532431866229418321e-02 0.000000000000000000e+00 0.000000000000000000e+00 0.000000000000000000e+00
1.000000000000000056e-01 -9.432641608870520056e-01 -3.624775853060957509e-01 -9.088694412799964706e-01 1.370873556020367312e+00 2.173487269843277225e-01 6.577887035182110598e-01 0.000000000000000000e+00 0.000000000000000000e+00 0.000000000000000000e+00
1.000000000000000056e-01 -8.185918281865754986e-01 1.740080720504400213e+00 8.513833549952528612e-01 4.860079288762619854e-01 -7.307676590710384668e-01 -3.491244336229267220e-01 0.000000000000000000e+00 0.000000000000000000e+00 0.000000000000000000e+00
1.000000000000000056e-01 -1.394559430283014434e+00 4.964988750120148953e-01 8.386092481601291337e-02 1.096758878520516012e+00 -1.634237117266054973e-01 -1.761225597961642297e-01 0.000000000000000000e+00 0.000000000000000000e+00 0.000000000000000000e+00
1.000000000000000056e-01 -7.639611901637828328e-01 1.947597081530483831e-01 -3.894647007622031171e-02 1.300538698911420932e+00 -2.920560668167520788e-02 -1.789713898938811998e-01 0.000000000000000000e+00 0.000000000000000000e+00 0.000000000000000000e+00
1.000000000000000056e-01 6.012091360406071061e-01 -7.959738656980030330e-03 1.161929622613907948e-01 -1.938974054138581371e-02 -2.345789211310506328e+00 -2.597611139425256788e+00 0.000000000000000000e+00 0.000000000000000000e+00 0.000000000000000000e+00
1.000000000000000056e-01 5.961030875055992606e-01 1.046667863224192585e+00 7.090839455266642055e-01 -4.498466721529917334e-01 -1.386842919792435458e+00 -5.358348475010638046e-01 0.000000000000000000e+00 0.000000000000000000e+00 0.000000000000000000e+00
1.000000000000000056e-01 -3.504663944731302161e-01 -1.247172568616567112e+00 -1.163809884413429918e+00 2.519850811478210328e-01 9.940463625491671174e-01 6.640472359476076170e-01 0.000000000000000000e+00 0.000000000000000000e+00 0.000000000000000000e+00
1.000000000000000056e-01 -2.584486355887894993e-01 -3.424422363833199978e-01 -7.647577832063053860e-01 1.074707718910266729e+00 1.888937985217236659e-01 3.964055254666489780e-01 0.000000000000000000e+00 0.000000000000000000e+00 0.000000000000000000e+00
1.000000000000000056e-01 4.925664506152769295e-01 4.907836022678260801e-02 1.569573962647362875e-01 -1.962058581290447856e+00 -6.076502345140383232e-01 1.481995074890929964e-01 0.000000000000000000e+00 0.000000000000000000e+00 0.000000000000000000e+00
1.000000000000000056e-01 4.049615059779286888e-03 -3.575199552348635734e-01 4.200347891051924298e-01 1.380921676969554701e+00 9.038781260363599745e-01 -7.680950456387842795e-01 0.000000000000000000e+00 0.000000000000000000e+00 0.000000000000000000e+00
1.000000000000000056e-01 4.988107623697269344e-01 6.617204928275520759e-01 6.608453714408613067e-01 -3.403417905463070881e-01 -1.081814514993644671e+00 -9.601008393210174185e-01 0.000000000000000000e+00 0.000000000000000000e+00 0.000000000000000000e+00
1.000000000000000056e-01 4.447021464043205974e-01 -3.433922970981340694e-01 6.904000175315255783e-01 -2.222738945882251627e-01 5.668326557600985582e-01 -1.134128991611803583e+00 0.000000000000000000e+00 0.000000000000000000e+00 0.000000000000000000e+00
1.000000000000000056e-01 4.340999640696867612e-01 -1.118692361679662489e-01 -7.547345117201276210e-02 -1.573183106858324631e-01 -1.025731078596488766e-01 1.734877881919298037e+00 0.000000000000000000e+00 0.000000000000000000e+00 0.000000000000000000e+00
1.000000000000000056e-01 4.085230990618980013e-02 3.612214441801739340e-01 1.669037836694957644e+00 -1.116988579032753282e-01 4.933346857910229089e-01 -1.612482549591340630e+00 0.000000000000000000e+00 0.000000000000000000e+00 0.000000000000000000e+00
1.000000000000000056e-01 -2.647748281477707577e-01 1.802198113750502539e+00 -4.764599505334354834e-02 -7.171642604224671480e+00 2.766813146430926906e+00 -2.824775863156545164e+00 0.000000000000000000e+00 0.000000000000000000e+00 0.000000000000000000e+00
1.000000000000000056e-01 8.359640811909698765e-01 1.545340078692281516e+00 -2.783744788277005555e-01 -5.755262315246247873e-01 -9.790729844598369258e-01 2.780528598600176537e-01 0.000000000000000000e+00 0.000000000000000000e+00 0.000000000000000000e+00
1.000000000000000056e-01 3.349370689390593014e+00 -3.375282840043904997e-01 1.630765554277430418e+00 5.182033621247273736e+00 -3.747328363244551763e+00 2.782226653345408085e+00 0.000000000000000000e+00 0.000000000000000000e+00 0.000000000000000000e+00
1.000000000000000056e-01 -5.249576583409217012e-02 6.241613259067794184e-01 -6.532590628036426539e-01 4.993129711040750762e-01 -9.569852504545066640e-01 1.161060097149881454e+00 0.000000000000000000e+00 0.000000000000000000e+00 0.000000000000000000e+00
1.000000000000000056e-01 -1.283809458996681752e+00 -8.032985232134678411e-01 9.196669417747430630e-01 8.629131426106877445e-01 3.799624765503313295e-01 -4.520847586043312827e-01 0.000000000000000000e+00 0.000000000000000000e+00 0.000000000000000000e+00
1.000000000000000056e-01 -3.175014912844423165e+00 4.293551528633956060e+00 1.169018005470657817e+00 -8.140482745700964529e+00 1.639276804300712698e+01 7.930271346173676683e+00 0.000000000000000000e+00 0.000000000000000000e+00 0.000000000000000000e+00
1.000000000000000056e-01 1.709362605675217306e-01 6.565074078832237037e-01 -1.126975037364739002e-01 1.178611713052907017e+00 -3.270467907422792697e-01 -2.027230021546814198e-01 0.000000000000000000e+00 0.000000000000000000e+00 0.000000000000000000e+00
1.000000000000000056e-01 1.040032483149608611e+00 -1.924005542202168906e+00 -1.799407610925041201e-01 -3.978337151367966618e-01 8.075582002920275171e-01 1.168021268771475552e-01 0.000000000000000000e+00 0.000000000000000000e+00 0.000000000000000000e+00
1.000000000000000056e-01 4.204132743334241806e-01 -1.578425468543682986e-02 2.840097344207691554e-01 -2.466340877259932007e+00 -6.502599107554578595e-01 7.033368259864829497e-01 0.000000000000000000e+00 0.000000000000000000e+00 0.000000000000000000e+00
1.000000000000000056e-01 -7.270650456675602502e-01 -1.338540151793290889e+00 -7.926167796228055229e-01 -2.903071403156949781e+00 -7.829071078351024227e+00 2.706857855880590580e-01 0.000000000000000000e+00 0.000000000000000000e+00 0.000000000000000000e+00
1.000000000000000056e-01 -1.554178890139661373e-01 9.253632807113589820e-01 -1.279309890595862198e-01 8.747512427490762299e-01 -1.589407240137294952e+00 4.193762145707357059e-01 0.000000000000000000e+00 0.000000000000000000e+00 0.000000000000000000e+00
1.000000000000000056e-01 9.212096757985543949e-01 4.551979759880860343e-01 2.495181609009959611e-01 -1.369887293459587596e+00 -9.937115258249987759e-01 1.404257743654550306e-01 0.000000000000000000e+00 0.000000000000000000e+00 0.000000000000000000e+00
1.000000000000000056e-01 3.350419348786142226e-01 -5.077588596590097980e-01 2.209876003274211798e-01 -3.849853430095452334e-01 1.770333279056812703e+00 -2.661453438869296195e-01 0.000000000000000000e+00 0.000000000000000000e+00 0.000000000000000000e+00
1.000000000000000056e-01 6.518415100814873853e-01 5.547023337032918056e-01 -7.103298784764100482e-01 1.045450943132694988e-01 2.895648518526305892e+00 7.940954587132125209e-01 0.000000000000000000e+00 0.000000000000000000e+00 0.000000000000000000e+00
1.000000000000000056e-01 1.236688674467689264e+00 1.965010475544891166e+00 1.804951849223193072e+00 -2.817852318278669110e-01 -5.096917011956750843e-01 -4.085942029194231662e-01 0.000000000000000000e+00 0.000000000000000000e+00 0.000000000000000000e+00
1.000000000000000056e-01 -6.304284213188428687e+00 -4.613891642912417712e-01 1.391326061258877189e+01 -1.346509976552380117e+01 -3.590346285080347588e+00 3.061849132045413313e+01 0.000000000000000000e+00 0.000000000000000000e+00 0.000000000000000000e+00
1.000000000000000056e-01 3.492553367239875084e-01 -4.512449450887948688e-01 4.073916783266789410e-01 2.373875469518624826e+00 2.131725268518019245e+00 -1.099005984039623574e+00 0.000000000000000000e+00 0.000000000000000000e+00 0.000000000000000000e+00
1.000000000000000056e-01 6.566451051897543856e-01 -2.928278610593555875e+00 -2.131667228314588769e+00 9.651670720832852268e+00 -1.706926904688129554e+01 -7.326660672535954433e+00 0.000000000000000000e+00 0.000000000000000000e+00 0.000000000000000000e+00
1.000000000000000056e-01 3.188458073308989699e-02 -1.071929077713346556e+00 -2.951255039624423038e-01 -1.550165941995308438e+00 -1.637202699674087603e+00 2.010699763687814112e+00 0.000000000000000000e+00 0.000000000000000000e+00 0.000000000000000000e+00
1.000000000000000056e-01 1.110281050917130585e+00 5.494358053637733719e-02 1.547115002820603769e+00 -7.294688527456505422e-01 5.865219395408446945e-02 -1.075228520732764537e+00 0.000000000000000000e+00 0.000000000000000000e+00 0.000000000000000000e+00
1.000000000000000056e-01 6.841394542682320834e-01 2.042707515594180956e-01 8.680167510067825498e-01 -8.052811480929169541e-01 -3.066584734607031848e-01 -1.115254740384916010e+00 0.000000000000000000e+00 0.000000000000000000e+00 0.000000000000000000e+00
