# Total Kinetic Energy: 25085.04209953706 J
# Total Potential Energy: -34915.976560269635 J
# Total Energy: -9830.934460732577 J
# mass x y z vx vy vz ax ay az
1.000000000000000056e-01 -5.420418060253437420e-02 -4.065093771445548732e-01 1.551137295323075926e-01 -1.789508675592013320e+00 -9.270838251673259311e-02 1.302908031789581589e+00 0.000000000000000000e+00 0.000000000000000000e+00 0.000000000000000000e+00
1.000000000000000056e-01 -4.669768735937819826e-01 6.280571057023349724e-01 -7.598231114402531627e-01 9.525828779282119463e-01 -9.071985207234549708e-01 1.187876608560084035e+00 0.000000000000000000e+00 0.000000000000000000e+00 0.000000000000000000e+00
1.000000000000000056e-01 1.578479638941572505e+00 7.094247829099472602e-01 7.551913846062034974e-01 -1.755038833274881860e+00 -7.032706669016651757e-01 -6.428426728635243670e-01 0.000000000000000000e+00 0.000000000000000000e+00 0.000000000000000000e+00
1.000000000000000056e-01 -8.303369676401288479e-02 -1.016560273965204431e+00 8.735765012578015076e-01 3.669922793473810452e-01 1.214161748851410705e+00 -1.239892944061762980e+00 0.000000000000000000e+00 0.000000000000000000e+00 0.000000000000000000e+00
1.000000000000000056e-01 6.560906648733740854e-01 4.746878005317114457e-01 2.950146129471363232e-01 4.477483478892327007e+00 -2.222467010603404791e+00 1.780517667065658061e-01 0.000000000000000000e+00 0.000000000000000000e+00 0.000000000000000000e+00
1.000000000000000056e-01 8.467594715089997448e-02 7.992338440506332464e-01 -7.005390421448880467e-01 -5.982602939085197857e-02 -1.351170677118298968e+00 1.526986023591579311e+00 0.000000000000000000e+00 0.000000000000000000e+00 0.000000000000000000e+00
1.000000000000000056e-01 -2.133554299196238624e-01 9.226373001246247763e-02 -1.429722337844923086e-01 1.431463541890237057e+00 6.368529552389289028e-02 3.231712973208537565e-01 0.000000000000000000e+00 0.000000000000000000e+00 0.000000000000000000e+00
1.000000000000000056e-01 -8.162979666844628612e-01 2.253057458555196013e-01 -7.528974568443408399e-01 1.133597701817466774e+00 -3.021000296448332900e-01 9.610739674139066047e-01 0.000000000000000000e+00 0.000000000000000000e+00 0.000000000000000000e+00
1.000000000000000056e-01 1.296761953666892009e-01 1.239946289758785847e+00 5.822486045201183957e-01 2.327100451370368306e-01 -1.492517036523369089e+00 -7.121283748698961080e-01 0.000000000000000000e+00 0.000000000000000000e+00 0.000000000000000000e+00
1.000000000000000056e-01 -1.086448119345087004e+00 8.979525581377173493e-01 -4.797884904900472092e-02 -2.198900714770238629e+00 -2.113211123078405640e-01 -1.122334285642295759e+00 0.000000000000000000e+00 0.000000000000000000e+00 0.000000000000000000e+00
1.000000000000000056e-01 9.443499206998220430e-01 2.836787689793035749e+00 -1.520092349640411455e-01 3.197053320219688466e+00 7.275849840018548953e+00 2.052282290064506576e+00 0.000000000000000000e+00 0.000000000000000000e+00 0.000000000000000000e+00
1.000000000000000056e-01 3.792004529310810668e-01 3.358584700686730873e-01 1.269558000293738553e+00 -2.526570167100080089e-01 -4.401589169520422895e-01 -1.466851356168979326e+00 0.000000000000000000e+00 0.000000000000000000e+00 0.000000000000000000e+00
1.000000000000000056e-01 3.103623638833969411e-01 -2.958533588168518746e-01 1.810632534633007940e-01 -6.243135425415091699e-01 1.897626859784843356e+00 -4.415891568399363809e-01 0.000000000000000000e+00 0.000000000000000000e+00 0.000000000000000000e+00
1.000000000000000056e-01 7.618546576935470993e-01 -8.991345957113883181e-01 1.134290444193951419e+00 -7.792040985061807756e-01 1.306084193384343228e+00 -9.431151842203129299e-01 0.000000000000000000e+00 0.000000000000000000e+00 0.000000000000000000e+00
1.000000000000000056e-01 -1.650554437918093365e-02 4.250955659840829348e-01 3.753838118242119881e-02 -4.181610110806689429e-01 -9.608530391675453863e-01 1.144438391102631014e+00 0.000000000000000000e+00 0.000000000000000000e+00 0.000000000000000000e+00
1.000000000000000056e-01 -9.030077968750427342e-02 -8.731432149393566489e-01 1.225898456497330619e-01 1.012708051847509561e+00 2.497993278844142573e+00 2.614500126103355693e-01 0.000000000000000000e+00 0.000000000000000000e+00 0.000000000000000000e+00
1.000000000000000056e-01 1.229575985305928709e+00 1.741457529707177709e-01 -7.001298750642297453e-01 -1.154223547676083816e+00 -2.761278755000878826e-01 1.083540098139854635e+00 0.000000000000000000e+00 0.000000000000000000e+00 0.000000000000000000e+00
1.000000000000000056e-01 8.482049237512734319e-01 -1.812058102343460542e+00 -1.906232323538972651e+00 -2.408520561762840240e-01 5.128324333635861931e-01 4.691777684329678788e-01 0.000000000000000000e+00 0.000000000000000000e+00 0.000000000000000000e+00
1.000000000000000056e-01 6.131784222296271514e-01 1.270268142698234570e-02 2.169239673722293260e-01 4.074791459304080016e-02 2.985860770943593034e-01 8.220450865746985469e-01 0.000000000000000000e+00 0.000000000000000000e+00 0.000000000000000000e+00
1.000000000000000056e-01 1.171626635010098311e-01 1.486662251689981673e+00 1.023964311129364618e-01 3.176637688728332076e-01 -1.129512920841834855e+00 9.235233084270352832e-02 0.000000000000000000e+00 0.000000000000000000e+00 0.000000000000000000e+00
1.000000000000000056e-01 1.597184012390904018e+00 -3.487473895618427577e-01 5.496026977479834263e-01 -1.341147840148616099e+00 4.672812943657593254e-01 -2.972224398812193802e-01 0.000000000000000000e+00 0.000000000000000000e+00 0.000000000000000000e+00
1.000000000000000056e-01 -5.605799723755665598e-01 -3.551888504889891274e-01 -7.897933692693156482e-01 1.064223870848764353e+00 8.770087237315490336e-01 3.071871590500127591e-01 0.000000000000000000e+00 0.000000000000000000e+00 0.000000000000000000e+00
1.000000000000000056e-01 1.331287171628517285e+00 6.084426763343584454e-01 6.603761542071849844e-01 -8.232912546935441389e-01 -9.774175570134414626e-01 -5.848366939165496881e-01 0.000000000000000000e+00 0.000000000000000000e+00 0.000000000000000000e+00
1.000000000000000056e-01 1.694327347858993194e-01 5.268044823432427304e-01 -7.968487363223193676e-02 6.528030630382641863e-01 -6.980881934181223381e-01 -2.752617345366294432e-01 0.000000000000000000e+00 0.000000000000000000e+00 0.000000000000000000e+00
1.000000000000000056e-01 2.154380779313203598e-01 1.756588285513679126e-01 4.809533720435577031e-02 -1.722863803036865704e+00 -2.332848681304445365e-02 -5.035498123838761941e-01 0.000000000000000000e+00 0.000000000000000000e+00 0.000000000000000000e+00
1.000000000000000056e-01 4.666640686571710273e-01 -1.124141462054264906e+00 -2.452683721601717437e+00 -9.243622062806360062e-02 2.567142749855467754e-01 6.944250723841739470e-01 0.000000000000000000e+00 0.000000000000000000e+00 0.000000000000000000e+00
1.000000000000000056e-01 2.580822407239860006e-01 -5.227253635201333237e-01 1.249941928742266617e+00 9.799606089596797354e-01 3.977051356927687742e-01 2.421161752556256985e+00 0.000000000000000000e+00 0.000000000000000000e+00 0.000000000000000000e+00
1.000000000000000056e-01 5.821817941935016893e-01 1.042934874064581852e+00 -8.316002172982052132e-01 -6.920620664909884479e-01 -1.000608272394755804e+00 1.036459866826205278e+00 0.000000000000000000e+00 0.000000000000000000e+00 0.000000000000000000e+00
1.000000000000000056e-01 -7.177846617411101082e-01 -3.632186181600188135e+00 2.324033441422403978e+00 -6.817132326903809769e-01 -5.546760700425844348e+00 7.537366928282473566e+00 0.000000000000000000e+00 0.000000000000000000e+00 0.000000000000000000e+00
1.000000000000000056e-01 -1.590792235559726597e+00 8.248414873001853609e-01 6.078842930936200206e-01 9.569097997800849464e-01 -3.810557792722128467e-01 -4.119547037591735905e-01 0.000000000000000000e+00 0.000000000000000000e+00 0.000000000000000000e+00
1.000000000000000056e-01 7.517511106781166186e-01 6.520719744581086053e-01 -2.461290768472784496e+00 -2.077853001506431152e-01 -1.805742588123481762e-01 7.078914047018608491e-01 0.000000000000000000e+00 0.000000000000000000e+00 0.000000000000000000e+00
1.000000000000000056e-01 9.988920973684057847e-01 -1.012245691467140274e+00 -9.536029309825554412e-01 2.410694505554972888e+00 -4.919905019154541814e-01 -2.846946812776590008e+00 0.000000000000000000e+00 0.000000000000000000e+00 0.000000000000000000e+00
1.000000000000000056e-01 -1.238235790872216135e+01 -4.800515597342019269e+00 3.195168094463849862e+00 -2.096819963505249262e+01 -9.030439238415070236e+00 4.008894364867055415e+00 0.000000000000000000e+00 0.000000000000000000e+00 0.000000000000000000e+00
1.000000000000000056e-01 -1.684580088563204958e+00 1.663256245642543707e-01 -9.095943628752407584e-01 1.072130761004196797e+00 -1.926467852300048009e-02 4.749537387983667203e-01 0.000000000000000000e+00 0.000000000000000000e+00 0.000000000000000000e+00
1.000000000000000056e-01 3.066718574838452893e-01 1.582310945800459168e+00 2.177735512937654327e+00 1.805529183793213102e-02 -4.957351328507292321e-01 -7.014793348004833007e-01 0.000000000000000000e+00 0.000000000000000000e+00 0.000000000000000000e+00
1.000000000000000056e-01 4.524172169820201983e-01 -2.120011055062654137e-01 8.043265321905218590e-01 -1.205571992052353991e+00 4.680356388156670655e-01 -1.759933181311382988e+00 0.000000000000000000e+00 0.000000000000000000e+00 0.000000000000000000e+00
1.000000000000000056e-01 2.142286469256092160e-02 -6.534787198638887240e-01 1.754560648153175029e-01 1.727590995401895313e-01 1.401047355687833340e+00 -6.274433849623746173e-01 0.000000000000000000e+00 0.000000000000000000e+00 0.000000000000000000e+00
1.000000000000000056e-01 -2.821426608769317945e-01 -6.483101101750342599e-01 4.836636555923334857e-01 1.597823794988199042e+00 1.098036819430081579e+00 -1.102693997370302048e+00 0.000000000000000000e+00 0.000000000000000000e+00 0.000000000000000000e+00
1.000000000000000056e-01 -1.980737170241601286e-01 -1.269264769626355482e+00 4.675596563102649705e-01 4.695272962576831355e-01 1.675793475823655676e+00 -5.437580507670465302e-01 0.000000000000000000e+00 0.000000000000000000e+00 0.000000000000000000e+00
1.000000000000000056e-01 3.476935852102959745e-01 2.058818910122925394e-03 1.213221067994854629e-01 -1.411780684679274200e+00 2.085279146722819110e+00 2.221001288665262141e+00 0.000000000000000000e+00 0.000000000000000000e+00 0.000000000000000000e+00
1.000000000000000056e-01 8.474598582376838829e-01 9.828306411875312176e-02 1.363028947164061366e-01 -9.087656383852090736e-01 1.548964323505582774e+00 6.954388300652683541e-02 0.000000000000000000e+00 0.000000000000000000e+00 0.000000000000000000e+00
1.000000000000000056e-01 -5.973625732293493668e-02 3.874682726326702520e-01 4.386082800431435891e-02 6.759795540928505986e-01 -1.259758017744748937e+00 -3.699089053657310666e-01 0.000000000000000000e+00 0.000000000000000000e+00 0.000000000000000000e+00
1.000000000000000056e-01 -1.540556746177853098e+00 1.339852714656243338e+00 2.284166675617094633e+00 3.785495826072231562e-01 -2.455328677832434026e-01 -4.513337450525167216e-01 0.000000000000000000e+00 0.000000000000000000e+00 0.000000000000000000e+00
1.000000000000000056e-01 5.603192800820662456e-02 -1.725086429212494277e-01 -4.037967492638760980e-01 2.364965253915116972e-01 -5.431764004946634632e-03 2.087755291704643135e+00 0.000000000000000000e+00 0.000000000000000000e+00 0.000000000000000000e+00
1.000000000000000056e-01 1.107077372273125304e+00 4.954112325398542238e-02 -2.522418836405833087e-01 -1.764632022716006166e+00 -1.748430095973727352e-02 6.674294020801843086e-01 0.000000000000000000e+00 0.000000000000000000e+00 0.000000000000000000e+00
1.000000000000000056e-01 1.181696453304196121e-01 2.367075344321033226e-02 -2.002765673552918013e+00 1.851413846591105083e-01 1.113872779297445215e+00 -1.678470636331551358e+00 0.000000000000000000e+00 0.000000000000000000e+00 0.000000000000000000e+00
1.000000000000000056e-01 9.605384915207101360e-01 -1.175344161017724889e-02 7.449397612926908496e-02 1.308753930353836026e+00 -5.140705177651847535e-01 1.291429288362441197e-01 0.000000000000000000e+00 0.000000000000000000e+00 0.000000000000000000e+00
1.000000000000000056e-01 2.221267463423198252e-01 -2.369630475398941949e-01 -3.010092244010125762e-01 3.024007457561687651e-01 4.249665019689857215e-01 1.060993643653276530e+00 0.000000000000000000e+00 0.000000000000000000e+00 0.000000000000000000e+00
1.000000000000000056e-01 -5.443569297408665797e-01 -4.507072824565866997e-01 -1.000834542990368670e+00 6.936595122090404297e-01 4.465031126211076451e-01 1.748413412771157027e+00 0.000000000000000000e+00 0.000000000000000000e+00 0.000000000000000000e+00
1.000000000000000056e-01 6.200503906618037853e-01 -5.394050227990975221e-01 9.922680647117778641e-01 -5.729185745277864950e-01 1.082939847063639327e+00 -1.557744491593919145e+00 0.000000000000000000e+00 0.000000000000000000e+00 0.000000000000000000e+00
1.000000000000000056e-01 1.490475778173139532e-01 2.316165109130507549e+00 -4.205237542142062246e+00 1.102621007503250317e+00 6.826632263544960111e+00 -6.133368960536239811e+00 0.000000000000000000e+00 0.000000000000000000e+00 0.000000000000000000e+00
1.000000000000000056e-01 1.459847041711584414e-01 8.364557776971367486e-01 1.401460126285222207e+00 1.465402455001052484e+00 5.567864251050560043e+00 -2.729481069255700554e+00 0.000000000000000000e+00 0.000000000000000000e+00 0.000000000000000000e+00
1.000000000000000056e-01 1.237763522039060371e-01 3.262498189497960999e-01 -3.331180522538519373e-01 -7.280493329076563880e-01 -6.496354455831654384e-01 1.618733638482398707e+00 0.000000000000000000e+00 0.000000000000000000e+00 0.000000000000000000e+00
1.000000000000000056e-01 4.304518589304851678e-03 -7.016905372289738985e-01 1.691015210411208614e-01 1.077274439799541517e+00 2.042906243548378686e+00 1.261204354476765488e+00 0.000000000000000000e+00 0.000000000000000000e+00 0.000000000000000000e+00
1.000000000000000056e-01 5.703709520858708526e-01 -2.295678537370106909e-01 6.860566485863341946e-01 -2.870798768990137084e-01 -6.855354118847267753e-02 -2.140216361130888423e+00 0.000000000000000000e+00 0.000000000000000000e+00 0.000000000000000000e+00
1.000000000000000056e-01 2.898308389148373521e-01 -3.479626153435327884e-01 1.863324088895772779e-01 -1.667274701087294142e+00 4.029043080254084863e+00 1.042769447563291485e-01 0.000000000000000000e+00 0.000000000000000000e+00 0.000000000000000000e+00
1.000000000000000056e-01 1.188044637874167542e+01 5.343783045762649841e+00 -1.734302315663592386e+00 2.149146918093912362e+01 8.704704843309759354e+00 -4.612951868124990362e+00 0.000000000000000000e+00 0.000000000000000000e+00 0.000000000000000000e+00
1.000000000000000056e-01 1.103201143011186686e-01 6.074956197958579773e-01 4.548305434793127322e-01 9.253834591830236711e-01 -1.173163907808658424e+00 -1.354855833007270638e+00 0.000000000000000000e+00 0.000000000000000000e+00 0.000000000000000000e+00
1.000000000000000056e-01 4.185385281702583282e-01 4.288080021382059126e-01 3.962535938445869710e-01 2.148214289239001595e-01 -5.016223564320324568e-01 -1.116734898836785561e+00 0.000000000000000000e+00 0.000000000000000000e+00 0.000000000000000000e+00
1.000000000000000056e-01 8.738424110403637535e-01 6.082215881154792170e-01 7.876690597089962553e-01 -9.241464580511780103e-01 -8.688967318390620198e-01 -1.308796734543474560e+00 0.000000000000000000e+00 0.000000000000000000e+00 0.000000000000000000e+00
1.000000000000000056e-01 7.700112196777599394e+00 2.794067809061534735e+00 -1.784666111471323546e+01 1.345508817747092145e+01 2.617683121421161108e+00 -3.026931948425434626e+01 0.000000000000000000e+00 0.000000000000000000e+00 0.000000000000000000e+00
1.000000000000000056e-01 -2.098086126417057218e-01 -5.025354084427737789e-01 2.301946799526592424e-01 -2.619724218769667878e+00 8.791747590123769607e-01 -1.562701777040715445e+00 0.000000000000000000e+00 0.000000000000000000e+00 0.000000000000000000e+00
1.000000000000000056e-01 -1.097968151960808436e+00 -4.165316133926483255e-02 1.802453220356589503e+00 -1.273044803995785568e+00 9.604845432703862373e-01 1.936505897520607311e+00 0.000000000000000000e+00 0.000000000000000000e+00 0.000000000000000000e+00
1.000000000000000056e-01 1.446461059342018851e+00 -5.267012560948176603e-01 -8.355806042337948769e-01 -9.950978330777114911e-01 4.840680728655354925e-01 7.177376684079603830e-01 0.000000000000000000e+00 0.000000000000000000e+00 0.000000000000000000e+00
1.000000000000000056e-01 -1.374791857830007236e-01 -4.551106829531987308e-01 2.635760805664489337e-01 2.278044177502495327e+00 -1.003660355075904481e-01 -2.400336828084065621e-01 0.000000000000000000e+00 0.000000000000000000e+00 0.000000000000000000e+00
1.000000000000000056e-01 -7.716418301211939168e-01 -3.369482493347532026e-01 -8.281209272658027754e-01 1.779219518407304079e+00 2.495272381030255449e-01 8.138119964002243911e-01 0.000000000000000000e+00 0.000000000000000000e+00 0.000000000000000000e+00
1.000000000000000056e-01 -7.598768264914029791e-01 1.652074460548937029e+00 8.090665214015002604e-01 5.812717527998642053e-01 -8.712832291146175301e-01 -4.203682664377590972e-01 0.000000000000000000e+00 0.000000000000000000e+00 0.000000000000000000e+00
1.000000000000000056e-01 -1.261064982700650372e+00 4.766524575439444189e-01 6.393151725938812924e-02 1.335984470682292979e+00 -1.941267033639829664e-01 -1.880813381596158906e-01 0.000000000000000000e+00 0.000000000000000000e+00 0.000000000000000000e+00
1.000000000000000056e-01 -6.014888624360092972e-01 1.895773016114803422e-01 -5.918110832810849486e-02 1.674539890331287362e+00 -7.100606726613523101e-02 -1.855721774636439336e-01 0.000000000000000000e+00 0.000000000000000000e+00 0.000000000000000000e+00
1.000000000000000056e-01 4.614848352621147010e-01 -2.777406009194734460e-01 -6.732953268200678187e-02 -1.826433177948192155e+00 -2.219785286771163157e+00 -1.171826676340986140e+00 0.000000000000000000e+00 0.000000000000000000e+00 0.000000000000000000e+00
1.000000000000000056e-01 5.401791386094856318e-01 8.739287863580945670e-01 6.406827112084374498e-01 -5.654483768605064187e-01 -1.772803349698760966e+00 -7.205503359127345409e-01 0.000000000000000000e+00 0.000000000000000000e+00 0.000000000000000000e+00
1.000000000000000056e-01 -3.205981971309037060e-01 -1.129288644028026534e+00 -1.082125394731261459e+00 2.953826112786958058e-01 1.154199171168857729e+00 8.211790839021819721e-01 0.000000000000000000e+00 0.000000000000000000e+00 0.000000000000000000e+00
1.000000000000000056e-01 -1.352523151142202285e-01 -3.152088551696580754e-01 -7.051736798936462103e-01 1.158077861409395393e+00 3.135164058090305628e-01 7.064038307008898565e-01 0.000000000000000000e+00 0.000000000000000000e+00 0.000000000000000000e+00
1.000000000000000056e-01 2.893313214647351694e-01 -4.643401497263991567e-02 1.545878006198333765e-01 -1.587364052829133065e+00 -1.107660239493387877e+00 -3.165550868247221095e-01 0.000000000000000000e+00 0.000000000000000000e+00 0.000000000000000000e+00
1.000000000000000056e-01 1.793897061420811623e-01 -2.641941351071869226e-01 3.114123912173215047e-01 1.849588019271534156e+00 8.958309562212450894e-01 -1.285954231669268033e+00 0.000000000000000000e+00 0.000000000000000000e+00 0.000000000000000000e+00
1.000000000000000056e-01 4.534596034768663686e-01 5.228622076988944656e-01 5.335052010468862571e-01 -4.751758236490009613e-01 -1.479198855971494142e+00 -1.414587000925424443e+00 0.000000000000000000e+00 0.000000000000000000e+00 0.000000000000000000e+00
1.000000000000000056e-01 4.187381317898266064e-01 -2.684129007587586213e-01 5.477957421567005714e-01 -2.427175951807438725e-01 8.278792208257326202e-01 -1.484092964085198751e+00 0.000000000000000000e+00 0.000000000000000000e+00 0.000000000000000000e+00
1.000000000000000056e-01 3.852420501406626507e-01 -1.617693648854035549e-01 8.523589811126795757e-02 -1.069947835571953387e+00 -4.156886284071229509e-01 1.089667360097217985e+00 0.000000000000000000e+00 0.000000000000000000e+00 0.000000000000000000e+00
1.000000000000000056e-01 -1.225914792818346907e-02 -1.044647863169071156e-01 1.616551854669700194e+00 -4.125426940614813631e-01 -6.010632296486694948e+00 -4.281619157719738361e-02 0.000000000000000000e+00 0.000000000000000000e+00 0.000000000000000000e+00
1.000000000000000056e-01 -1.048641842464413720e+00 2.096201288268019880e+00 -3.562846985507387432e-01 -7.085834018150895197e+00 2.596887566658235169e+00 -2.788007359726242029e+00 0.000000000000000000e+00 0.000000000000000000e+00 0.000000000000000000e+00
1.000000000000000056e-01 7.658641986071828001e-01 1.426245636032383857e+00 -2.446062718178311501e-01 -6.988630371435746724e-01 -1.199755848229166366e+00 3.373715210668985498e-01 0.000000000000000000e+00 0.000000000000000000e+00 0.000000000000000000e+00
1.000000000000000056e-01 3.915956816007729824e+00 -7.491612571041937896e-01 1.935227919900718074e+00 5.123291827101811080e+00 -3.736775152881425477e+00 2.754991979761447496e+00 0.000000000000000000e+00 0.000000000000000000e+00 0.000000000000000000e+00
1.000000000000000056e-01 1.051873544091610178e-02 5.098636840755296218e-01 -5.069703120647770511e-01 6.506373334558862576e-01 -1.135149247585325982e+00 1.527852372723444097e+00 0.000000000000000000e+00 0.000000000000000000e+00 0.000000000000000000e+00
1.000000000000000056e-01 -1.179274734586120088e+00 -7.571024238719082922e-01 8.652903207657114404e-01 1.040809488468309896e+00 4.618210449342120549e-01 -5.387500873347408348e-01 0.000000000000000000e+00 0.000000000000000000e+00 0.000000000000000000e+00
1.000000000000000056e-01 -4.069571973189916925e+00 6.095592618274793040e+00 2.041041624125446763e+00 -8.125973726992013368e+00 1.637358245905974385e+01 7.924987426284167746e+00 0.000000000000000000e+00 0.000000000000000000e+00 0.000000000000000000e+00
1.000000000000000056e-01 2.587612122440146045e-01 5.709360473124600599e-01 -9.918332249067886297e-02 3.704959348737495994e-01 -1.211429781045358256e+00 3.738361026087653194e-01 0.000000000000000000e+00 0.000000000000000000e+00 0.000000000000000000e+00
1.000000000000000056e-01 9.919677112418877618e-01 -1.826369002548609011e+00 -1.659906558433346113e-01 -4.764286552119208484e-01 9.696577061728863800e-01 1.371060765496216749e-01 0.000000000000000000e+00 0.000000000000000000e+00 0.000000000000000000e+00
1.000000000000000056e-01 1.702472371440805488e-01 -9.221144991055339746e-02 3.214823208962033219e-01 -2.045473489688233393e+00 -8.345881211609427197e-01 7.714919565452588168e-04 0.000000000000000000e+00 0.000000000000000000e+00 0.000000000000000000e+00
1.000000000000000056e-01 -1.040629134809992529e+00 -2.191432218497562090e+00 -7.595138888030904534e-01 -2.810534282767579661e+00 -7.690206021654445223e+00 3.253171705146867820e-01 0.000000000000000000e+00 0.000000000000000000e+00 0.000000000000000000e+00
1.000000000000000056e-01 -4.452004974817937166e-02 7.250040981279280983e-01 -7.661034886238289598e-02 1.160212412831516327e+00 -2.094431387360729424e+00 5.137482738796809167e-01 0.000000000000000000e+00 0.000000000000000000e+00 0.000000000000000000e+00
1.000000000000000056e-01 7.472331636567057789e-01 3.297686884929722506e-01 2.638660484447681864e-01 -1.835150143796131061e+00 -1.281513673897121564e+00 1.196524484146689743e-01 0.000000000000000000e+00 0.000000000000000000e+00 0.000000000000000000e+00
1.000000000000000056e-01 3.413018190041974820e-01 -3.001698801179045195e-01 1.790007961418431104e-01 -8.753576820743114162e-02 9.444390683788999041e-01 1.006548266279089665e+00 0.000000000000000000e+00 0.000000000000000000e+00 0.000000000000000000e+00
1.000000000000000056e-01 6.529791516025986731e-01 8.661354018811451283e-01 -6.099085993710942066e-01 -8.686535839180439811e-02 2.762687579932070925e+00 1.013701484717746792e+00 0.000000000000000000e+00 0.000000000000000000e+00 0.000000000000000000e+00
1.000000000000000056e-01 1.202686329798916098e+00 1.903954850525660492e+00 1.755971155015639162e+00 -3.369327420302480336e-01 -6.009673107602975239e-01 -4.825261241813479929e-01 0.000000000000000000e+00 0.000000000000000000e+00 0.000000000000000000e+00
1.000000000000000056e-01 -7.785354560353280995e+00 -8.563188364656317830e-01 1.728109609592414841e+01 -1.346356565268049366e+01 -3.590195633435237621e+00 3.061512315455255262e+01 0.000000000000000000e+00 0.000000000000000000e+00 0.000000000000000000e+00
1.000000000000000056e-01 5.865567122645528597e-01 -2.025284499786593195e-01 2.556853338062043957e-01 1.802289374498795116e+00 2.429598314345745802e+00 -1.610518588381646632e+00 0.000000000000000000e+00 0.000000000000000000e+00 0.000000000000000000e+00
1.000000000000000056e-01 1.717790012600928007e+00 -4.803345555163924807e+00 -2.935963668240853419e+00 9.642203929172262988e+00 -1.702940350859097052e+01 -7.301299120936169729e+00 0.000000000000000000e+00 0.000000000000000000e+00 0.000000000000000000e+00
1.000000000000000056e-01 -1.371302560715391139e-01 -1.231680356055790737e+00 -6.165775684933227918e-02 -1.507961158475164432e+00 -1.250927689865248604e+00 2.217631621224353200e+00 0.000000000000000000e+00 0.000000000000000000e+00 0.000000000000000000e+00
1.000000000000000056e-01 1.020919371837284206e+00 6.168789220406850626e-02 1.415581581575180659e+00 -8.991384079791514550e-01 6.343231828169712538e-02 -1.323556144093116949e+00 0.000000000000000000e+00 0.000000000000000000e+00 0.000000000000000000e+00
1.000000000000000056e-01 5.843734846922681303e-01 1.640430428673778640e-01 7.263825854788020786e-01 -1.012824044956561753e+00 -4.298758764345339545e-01 -1.491319713547533787e+00 0.000000000000000000e+00 0.000000000000000000e+00 0.000000000000000000e+00
