# Total Kinetic Energy: 25414.82529394883 J
# Total Potential Energy: -37137.84091392012 J
# Total Energy: -11723.015619971287 J
# mass x y z vx vy vz ax ay az
1.000000000000000056e-01 -1.383667319548976260e-01 -4.172139077591583423e-01 2.297059249457458763e-01 -1.440606239541257771e+00 -3.490746275365103624e-01 1.622173203985529000e+00 0.000000000000000000e+00 0.000000000000000000e+00 0.000000000000000000e+00
1.000000000000000056e-01 -4.170435889814972374e-01 5.805431679573483938e-01 -6.974698481553192053e-01 1.046481167938670298e+00 -9.954528616368439886e-01 1.308879845566623734e+00 0.000000000000000000e+00 0.000000000000000000e+00 0.000000000000000000e+00
1.000000000000000056e-01 1.486431646652465188e+00 6.723051142558832405e-01 7.214476171118178183e-01 -1.931283720908576695e+00 -7.855680741757471441e-01 -7.098859145460458819e-01 0.000000000000000000e+00 0.000000000000000000e+00 0.000000000000000000e+00
1.000000000000000056e-01 -6.369565319239524348e-02 -9.525872892171189932e-01 8.084508133330823298e-01 4.069433754596646913e-01 1.347290501069069224e+00 -1.367733102829299607e+00 0.000000000000000000e+00 0.000000000000000000e+00 0.000000000000000000e+00
1.000000000000000056e-01 8.738828508962240837e-01 3.543172742031653333e-01 3.027062022949885689e-01 4.192845725922279776e+00 -2.558617363752644369e+00 1.228214613482145473e-01 0.000000000000000000e+00 0.000000000000000000e+00 0.000000000000000000e+00
1.000000000000000056e-01 8.212734109652386483e-02 7.281664424106312206e-01 -6.200960738731242650e-01 -4.166112012395511988e-02 -1.494780860818135437e+00 1.694821263607755313e+00 0.000000000000000000e+00 0.000000000000000000e+00 0.000000000000000000e+00
1.000000000000000056e-01 -1.358056907893325504e-01 9.579055235195214901e-02 -1.239766228899851497e-01 1.683694657066462597e+00 8.105355797622837422e-02 4.468720698351622556e-01 0.000000000000000000e+00 0.000000000000000000e+00 0.000000000000000000e+00
1.000000000000000056e-01 -7.566124418836287502e-01 2.093651849038304369e-01 -7.026961688094898184e-01 1.256437661742343836e+00 -3.362840324346951237e-01 1.048668405232620282e+00 0.000000000000000000e+00 0.000000000000000000e+00 0.000000000000000000e+00
1.000000000000000056e-01 1.420794543269093269e-01 1.161621726610256644e+00 5.450174766209371358e-01 2.641073121618654485e-01 -1.642891572148484247e+00 -7.777094436933389421e-01 0.000000000000000000e+00 0.000000000000000000e+00 0.000000000000000000e+00
1.000000000000000056e-01 -1.194225149935165486e+00 8.854105923790360766e-01 -1.037280283688076371e-01 -2.111361443107000024e+00 -2.901897865729548553e-01 -1.106151503413433934e+00 0.000000000000000000e+00 0.000000000000000000e+00 0.000000000000000000e+00
1.000000000000000056e-01 1.103873705992764576e+00 3.199458519215913732e+00 -4.927717720644382571e-02 3.184300899315466893e+00 7.232708319764375560e+00 2.056539202101365760e+00 0.000000000000000000e+00 0.000000000000000000e+00 0.000000000000000000e+00
1.000000000000000056e-01 3.667104495681201004e-01 3.127321437532601389e-01 1.191993985335852324e+00 -2.453923603204193338e-01 -4.865588816688654061e-01 -1.640111351030715481e+00 0.000000000000000000e+00 0.000000000000000000e+00 0.000000000000000000e+00
1.000000000000000056e-01 2.557563947175242602e-01 -2.397731966037530693e-01 2.680742826402484624e-01 -2.173184339194003112e+00 1.764044114875782832e+00 2.907568187595323206e+00 0.000000000000000000e+00 0.000000000000000000e+00 0.000000000000000000e+00
1.000000000000000056e-01 7.209977046294757663e-01 -8.306880651551519223e-01 1.084562658330274765e+00 -8.559256580734251330e-01 1.433040196841812053e+00 -1.047485487999108011e+00 0.000000000000000000e+00 0.000000000000000000e+00 0.000000000000000000e+00
1.000000000000000056e-01 -4.289330744026275538e-02 3.376703840907377963e-01 6.644533075364418562e-02 1.429809422705127786e-01 -2.167411341568514338e+00 -4.114728186941379873e-01 0.000000000000000000e+00 0.000000000000000000e+00 0.000000000000000000e+00
1.000000000000000056e-01 -3.607055983096021934e-02 -7.374885449843853191e-01 1.381866432728128258e-01 1.163165527048880765e+00 2.962533658701656858e+00 3.747401637672590491e-01 0.000000000000000000e+00 0.000000000000000000e+00 0.000000000000000000e+00
1.000000000000000056e-01 1.169016792237913993e+00 1.598371273132520864e-01 -6.431480814971289872e-01 -1.270135098106786042e+00 -2.963105678458553549e-01 1.198046779587919275e+00 0.000000000000000000e+00 0.000000000000000000e+00 0.000000000000000000e+00
1.000000000000000056e-01 8.357902092532053517e-01 -1.785463246316673080e+00 -1.881901568475459419e+00 -2.556510269432459292e-01 5.512421698565571626e-01 5.042302497895486679e-01 0.000000000000000000e+00 0.000000000000000000e+00 0.000000000000000000e+00
1.000000000000000056e-01 6.090942174298591416e-01 2.432947759179617322e-02 2.565756380764064870e-01 -1.877958199717517929e-01 1.622991029528557394e-01 7.407808372613937653e-01 0.000000000000000000e+00 0.000000000000000000e+00 0.000000000000000000e+00
1.000000000000000056e-01 1.334970602567034925e-01 1.426553110948841185e+00 1.072803541531947152e-01 3.362574847356991636e-01 -1.277037494245491622e+00 1.030466268561783666e-01 0.000000000000000000e+00 0.000000000000000000e+00 0.000000000000000000e+00
1.000000000000000056e-01 1.526764010087314105e+00 -3.242329319890766559e-01 5.339571874012015718e-01 -1.478133884772451889e+00 5.145802795817172592e-01 -3.295462945143050049e-01 0.000000000000000000e+00 0.000000000000000000e+00 0.000000000000000000e+00
1.000000000000000056e-01 -5.075918915107808793e-01 -3.112342035592297607e-01 -7.744190262334956776e-01 1.043463220598147556e+00 8.673186857632130264e-01 3.054072692559390290e-01 0.000000000000000000e+00 0.000000000000000000e+00 0.000000000000000000e+00
1.000000000000000056e-01 1.287543587828112068e+00 5.585198256049550558e-01 6.304319297802113420e-01 -9.276660514755338260e-01 -1.018460986852436356e+00 -6.136596800923976858e-01 0.000000000000000000e+00 0.000000000000000000e+00 0.000000000000000000e+00
1.000000000000000056e-01 2.142492596652121606e-01 4.918079487738435396e-01 -9.144507571087456821e-02 1.335922953856719220e+00 -6.845776480452019364e-01 -1.096257228987922855e-01 0.000000000000000000e+00 0.000000000000000000e+00 0.000000000000000000e+00
1.000000000000000056e-01 1.309831784762824913e-01 1.708058844541427423e-01 2.586706598975831509e-02 -1.662731826730497353e+00 -1.465519565934889079e-01 -3.846266384680703254e-01 0.000000000000000000e+00 0.000000000000000000e+00 0.000000000000000000e+00
1.000000000000000056e-01 4.619361338238777703e-01 -1.110832936448313601e+00 -2.416721956666017856e+00 -9.659307564236188637e-02 2.757296931038967225e-01 7.442254727182745500e-01 0.000000000000000000e+00 0.000000000000000000e+00 0.000000000000000000e+00
1.000000000000000056e-01 3.075214872622116236e-01 -5.011206750287574563e-01 1.366984322132408280e+00 9.916070104180841893e-01 4.647846508551986555e-01 2.263629774786054760e+00 0.000000000000000000e+00 0.000000000000000000e+00 0.000000000000000000e+00
1.000000000000000056e-01 5.468677312562004733e-01 9.899030786787932357e-01 -7.757432258339742592e-01 -7.167751633572058134e-01 -1.115796376592136152e+00 1.206201233968675846e+00 0.000000000000000000e+00 0.000000000000000000e+00 0.000000000000000000e+00
1.000000000000000056e-01 -7.517594109482504949e-01 -3.909074244088509786e+00 2.700617917166869386e+00 -6.774551884759841824e-01 -5.529360189559080041e+00 7.526246475221604726e+00 0.000000000000000000e+00 0.000000000000000000e+00 0.000000000000000000e+00
1.000000000000000056e-01 -1.540972533611965734e+00 8.050352486472340807e-01 5.865058184884810455e-01 1.036431271306126334e+00 -4.114800761596296153e-01 -4.435920775443661923e-01 0.000000000000000000e+00 0.000000000000000000e+00 0.000000000000000000e+00
1.000000000000000056e-01 7.409861094461387410e-01 6.426477110039606755e-01 -2.424593089602881779e+00 -2.229971925318999237e-01 -1.966331957201931102e-01 7.602553999840574450e-01 0.000000000000000000e+00 0.000000000000000000e+00 0.000000000000000000e+00
1.000000000000000056e-01 1.118307609876870945e+00 -1.035296858559318522e+00 -1.094388830570643067e+00 2.366029078757801329e+00 -4.315076479888473870e-01 -2.785090461940887163e+00 0.000000000000000000e+00 0.000000000000000000e+00 0.000000000000000000e+00
1.000000000000000056e-01 -1.343071396917130045e+01 -5.252016527491663034e+00 3.395600082469570680e+00 -2.096609911229707279e+01 -9.029618880013742910e+00 4.008399947957267173e+00 0.000000000000000000e+00 0.000000000000000000e+00 0.000000000000000000e+00
1.000000000000000056e-01 -1.628987202064840822e+00 1.652586970076052875e-01 -8.848656466402378129e-01 1.152096888931894991e+00 -2.332174828656522966e-02 5.147241046635113726e-01 0.000000000000000000e+00 0.000000000000000000e+00 0.000000000000000000e+00
1.000000000000000056e-01 3.075924706569174716e-01 1.556610873613691659e+00 2.141332129352746971e+00 1.878215307483363170e-02 -5.322920138886527708e-01 -7.550725823990708241e-01 0.000000000000000000e+00 0.000000000000000000e+00 0.000000000000000000e+00
1.000000000000000056e-01 3.938072386860954621e-01 -1.878506569311153285e-01 7.065632312657514902e-01 -1.142416110164950371e+00 5.022739712963569803e-01 -2.156578897639621850e+00 0.000000000000000000e+00 0.000000000000000000e+00 0.000000000000000000e+00
1.000000000000000056e-01 3.488397754929160877e-02 -6.091674901779484674e-01 1.891562640599862566e-01 6.882765519010980437e-01 1.427933474343588749e+00 1.209305448285221019e+00 0.000000000000000000e+00 0.000000000000000000e+00 0.000000000000000000e+00
1.000000000000000056e-01 -1.967040214194108738e-01 -5.892765587035779795e-01 4.229386428888508576e-01 1.826778563133132582e+00 1.273672006898362019e+00 -1.339092038574257959e+00 0.000000000000000000e+00 0.000000000000000000e+00 0.000000000000000000e+00
1.000000000000000056e-01 -1.732259899579268458e-01 -1.181048487410718995e+00 4.390954461779240647e-01 5.247085305535422739e-01 1.854826669335788880e+00 -5.963945897492373138e-01 0.000000000000000000e+00 0.000000000000000000e+00 0.000000000000000000e+00
1.000000000000000056e-01 2.705886991137737008e-01 9.223928425088562255e-02 2.332699746648473071e-01 -1.590588186765218737e+00 1.587254963208726499e+00 2.190603696851717519e+00 0.000000000000000000e+00 0.000000000000000000e+00 0.000000000000000000e+00
1.000000000000000056e-01 7.950939766598337233e-01 1.736081113991053970e-01 1.417598650676619998e-01 -1.204963580766867492e+00 1.472025774457587532e+00 1.735920364482546052e-01 0.000000000000000000e+00 0.000000000000000000e+00 0.000000000000000000e+00
1.000000000000000056e-01 -8.289318355740976987e-03 3.576289705117707274e-01 5.065772552560771080e-02 6.219863633392102020e-01 -3.283520370213195427e-01 1.056671437261405222e+00 0.000000000000000000e+00 0.000000000000000000e+00 0.000000000000000000e+00
1.000000000000000056e-01 -1.520962757694820588e+00 1.327115666040219688e+00 2.260795484149630497e+00 4.052541431656676019e-01 -2.640660733600126431e-01 -4.836029084487580842e-01 0.000000000000000000e+00 0.000000000000000000e+00 0.000000000000000000e+00
1.000000000000000056e-01 7.146227034354744878e-02 -1.718186379698117827e-01 -2.923577574368113052e-01 3.937704759031082080e-01 3.855366419946983092e-02 2.380518339964414753e+00 0.000000000000000000e+00 0.000000000000000000e+00 0.000000000000000000e+00
1.000000000000000056e-01 1.014012205304375192e+00 4.868653161332313350e-02 -2.154598958608202608e-01 -1.960005518973813032e+00 -1.659065003655258580e-02 8.119205158913793685e-01 0.000000000000000000e+00 0.000000000000000000e+00 0.000000000000000000e+00
1.000000000000000056e-01 1.274989716344402946e-01 7.933340233200836256e-02 -2.084832072532346370e+00 1.883191863342642824e-01 1.112461219020145942e+00 -1.604885479667249593e+00 0.000000000000000000e+00 0.000000000000000000e+00 0.000000000000000000e+00
1.000000000000000056e-01 1.017444003361910321e+00 -3.473349201021871946e-02 8.271348103188656820e-02 9.769242017147748980e-01 -4.123194233231688433e-01 1.890224422177958497e-01 0.000000000000000000e+00 0.000000000000000000e+00 0.000000000000000000e+00
1.000000000000000056e-01 2.349467953059558023e-01 -2.125438432706439895e-01 -2.412899553912732642e-01 1.996450256813857571e-01 5.492307109827430089e-01 1.342698525957216837e+00 0.000000000000000000e+00 0.000000000000000000e+00 0.000000000000000000e+00
1.000000000000000056e-01 -5.089830341285453974e-01 -4.252772889381004062e-01 -9.074949884630226782e-01 7.194097396931180555e-01 5.862432883629346003e-01 1.996710516965488402e+00 0.000000000000000000e+00 0.000000000000000000e+00 0.000000000000000000e+00
1.000000000000000056e-01 5.891423137503144503e-01 -4.823571519081579217e-01 9.105135288483823253e-01 -6.637946742491125374e-01 1.200669416162591707e+00 -1.716643449983473291e+00 0.000000000000000000e+00 0.000000000000000000e+00 0.000000000000000000e+00
1.000000000000000056e-01 2.041817279809676478e-01 2.657274575001735695e+00 -4.511506249633345789e+00 1.102702009377023007e+00 6.817933751184168223e+00 -6.117861753956106874e+00 0.000000000000000000e+00 0.000000000000000000e+00 0.000000000000000000e+00
1.000000000000000056e-01 2.197669781958279667e-01 1.112969114755069100e+00 1.262348580100970175e+00 1.483564342684012383e+00 5.490881114342983871e+00 -2.832794149790843541e+00 0.000000000000000000e+00 0.000000000000000000e+00 0.000000000000000000e+00
1.000000000000000056e-01 8.752877338474313040e-02 2.934413762443307538e-01 -2.458059816972256728e-01 -7.145487248340677278e-01 -6.634016212016438097e-01 1.885923774946986375e+00 0.000000000000000000e+00 0.000000000000000000e+00 0.000000000000000000e+00
1.000000000000000056e-01 4.998487464437028488e-02 -5.586356079799585928e-01 1.884655287331912787e-01 3.925464654808730192e-01 2.656079390112943805e+00 -5.112688565722878220e-01 0.000000000000000000e+00 0.000000000000000000e+00 0.000000000000000000e+00
1.000000000000000056e-01 5.480015219040986763e-01 -2.301967397675575566e-01 5.740883825751145197e-01 -6.167289039601817624e-01 5.801632966635220101e-02 -2.356330290646356129e+00 0.000000000000000000e+00 0.000000000000000000e+00 0.000000000000000000e+00
1.000000000000000056e-01 2.671420906828547714e-01 -1.276375639023467901e-01 1.879449092017352885e-01 2.874217163600620850e-01 4.014161037504321072e+00 -6.384646386668761664e-02 0.000000000000000000e+00 0.000000000000000000e+00 0.000000000000000000e+00
1.000000000000000056e-01 1.295495938182201812e+01 5.778991113809599511e+00 -1.964940672469973615e+00 2.148911871718284061e+01 8.703649804603674767e+00 -4.612591137744556313e+00 0.000000000000000000e+00 0.000000000000000000e+00 0.000000000000000000e+00
1.000000000000000056e-01 1.601164005227664333e-01 5.438231563985276296e-01 3.833652536226466179e-01 1.069400905250745382e+00 -1.386386813833360598e+00 -1.508551774423177338e+00 0.000000000000000000e+00 0.000000000000000000e+00 0.000000000000000000e+00
1.000000000000000056e-01 4.298385769533839551e-01 4.014748763511216678e-01 3.414693105417762609e-01 2.204943908641138761e-01 -6.018742847310072364e-01 -1.043289606523039037e+00 0.000000000000000000e+00 0.000000000000000000e+00 0.000000000000000000e+00
1.000000000000000056e-01 8.244335372815957408e-01 5.620369707761625477e-01 7.186584745560565812e-01 -1.054593545677257049e+00 -9.822883147189259700e-01 -1.456142310360976522e+00 0.000000000000000000e+00 0.000000000000000000e+00 0.000000000000000000e+00
1.000000000000000056e-01 8.372855258319036764e+00 2.924947900548308777e+00 -1.936009966237805457e+01 1.345464598416875468e+01 2.617525723102074320e+00 -3.026825131413761483e+01 0.000000000000000000e+00 0.000000000000000000e+00 0.000000000000000000e+00
1.000000000000000056e-01 -3.257632630345839719e-01 -4.543108576515399455e-01 1.537505643998030858e-01 -2.069992646361908495e+00 1.022263004295177469e+00 -1.497226673831001165e+00 0.000000000000000000e+00 0.000000000000000000e+00 0.000000000000000000e+00
1.000000000000000056e-01 -1.160430069872138814e+00 6.441857969162773090e-03 1.897833026504947451e+00 -1.226195150394489009e+00 9.630961566597403545e-01 1.879249391035178185e+00 0.000000000000000000e+00 0.000000000000000000e+00 0.000000000000000000e+00
1.000000000000000056e-01 1.394501854089432946e+00 -5.016050388199581045e-01 -7.981364100223471425e-01 -1.083831846034690738e+00 5.202306758432566625e-01 7.805772495895780816e-01 0.000000000000000000e+00 0.000000000000000000e+00 0.000000000000000000e+00
1.000000000000000056e-01 -2.183384113998267095e-02 -4.558632499906954960e-01 2.385905843756672695e-01 2.295078130560345375e+00 9.210278798430936165e-02 -7.202647600460481137e-01 0.000000000000000000e+00 0.000000000000000000e+00 0.000000000000000000e+00
1.000000000000000056e-01 -6.761048043046352651e-01 -3.239627279123496462e-01 -7.856027071086788549e-01 2.059099190054538120e+00 2.710097207491767857e-01 8.851583425514928383e-01 0.000000000000000000e+00 0.000000000000000000e+00 0.000000000000000000e+00
1.000000000000000056e-01 -7.297093706378771083e-01 1.606803821342106087e+00 7.872478567240489555e-01 6.258062791645574441e-01 -9.401911453670955821e-01 -4.523647972326180211e-01 0.000000000000000000e+00 0.000000000000000000e+00 0.000000000000000000e+00
1.000000000000000056e-01 -1.191368489565360456e+00 4.667198233649622607e-01 5.428059491288081406e-02 1.452062798069645666e+00 -2.034790559378960029e-01 -1.984687179927883127e-01 0.000000000000000000e+00 0.000000000000000000e+00 0.000000000000000000e+00
1.000000000000000056e-01 -5.123039703500837927e-01 1.852058850121607037e-01 -6.828439986620359059e-02 1.901086599586311765e+00 -1.061001291570312088e-01 -1.761804163303931914e-01 0.000000000000000000e+00 0.000000000000000000e+00 0.000000000000000000e+00
1.000000000000000056e-01 3.640328501128803906e-01 -3.822081063497968501e-01 -1.170484516865824415e-01 -2.059775619363048094e+00 -1.943735255899410763e+00 -8.412905367354281960e-01 0.000000000000000000e+00 0.000000000000000000e+00 0.000000000000000000e+00
1.000000000000000056e-01 5.107076938864359983e-01 7.800725139151626353e-01 6.019503807734861711e-01 -6.130895555942779129e-01 -1.985454100879309403e+00 -8.325979239297918166e-01 0.000000000000000000e+00 0.000000000000000000e+00 0.000000000000000000e+00
1.000000000000000056e-01 -3.052083934211866079e-01 -1.069511294606108720e+00 -1.039176514756710690e+00 3.205675589277118820e-01 1.238155781664339150e+00 8.978077817081332457e-01 0.000000000000000000e+00 0.000000000000000000e+00 0.000000000000000000e+00
1.000000000000000056e-01 -7.677256578352691097e-02 -2.978127909714313182e-01 -6.654443906828848565e-01 1.179258268802882759e+00 3.837737037775216242e-01 8.871535729602747500e-01 0.000000000000000000e+00 0.000000000000000000e+00 0.000000000000000000e+00
1.000000000000000056e-01 2.202630339379500479e-01 -1.066327987386598425e-01 1.414185154691535995e-01 -1.107193784567857886e+00 -1.520087770196200783e+00 -4.453572573156797110e-02 0.000000000000000000e+00 0.000000000000000000e+00 0.000000000000000000e+00
1.000000000000000056e-01 2.850327963264769893e-01 -2.182277963334792181e-01 2.268799363898494625e-01 2.309541714350777930e+00 5.546539198427000716e-01 -2.073937159341321390e+00 0.000000000000000000e+00 0.000000000000000000e+00 0.000000000000000000e+00
1.000000000000000056e-01 4.285820195184431025e-01 4.423545830927030353e-01 4.545967038907804958e-01 -5.200376032829699957e-01 -1.754084489074062114e+00 -1.773101007246300931e+00 0.000000000000000000e+00 0.000000000000000000e+00 0.000000000000000000e+00
1.000000000000000056e-01 4.058228006819685763e-01 -2.228822432654897767e-01 4.682609620720240007e-01 -2.840671653736592250e-01 9.971819200624632007e-01 -1.708333586840155682e+00 0.000000000000000000e+00 0.000000000000000000e+00 0.000000000000000000e+00
1.000000000000000056e-01 3.154206153811840996e-01 -1.880577037724004141e-01 1.543576188142958550e-01 -2.273324358336534345e+00 -8.216629863275528578e-01 1.666766262375428909e+00 0.000000000000000000e+00 0.000000000000000000e+00 0.000000000000000000e+00
1.000000000000000056e-01 -3.184846046681749643e-02 -4.047219571634252389e-01 1.611110952506563221e+00 -3.692811675660720439e-01 -5.996832781018518688e+00 -1.756574940489919190e-01 0.000000000000000000e+00 0.000000000000000000e+00 0.000000000000000000e+00
1.000000000000000056e-01 -1.402115612823981783e+00 2.224766926031926051e+00 -4.953225404492428985e-01 -7.053666258900074482e+00 2.547929612777088959e+00 -2.773823840348259573e+00 0.000000000000000000e+00 0.000000000000000000e+00 0.000000000000000000e+00
1.000000000000000056e-01 7.294410676850683339e-01 1.363154083907681891e+00 -2.270531009038365133e-01 -7.589072505739444807e-01 -1.327041154608197715e+00 3.641732999691683070e-01 0.000000000000000000e+00 0.000000000000000000e+00 0.000000000000000000e+00
1.000000000000000056e-01 4.171599336682535686e+00 -9.358789019698838807e-01 2.072728732275735730e+00 5.102939543051824955e+00 -3.731952660576320469e+00 2.745269691015202795e+00 0.000000000000000000e+00 0.000000000000000000e+00 0.000000000000000000e+00
1.000000000000000056e-01 4.484798661056848407e-02 4.502509881119449719e-01 -4.246076367166556342e-01 7.218005685592110421e-01 -1.254913278975949176e+00 1.780314240770215939e+00 0.000000000000000000e+00 0.000000000000000000e+00 0.000000000000000000e+00
1.000000000000000056e-01 -1.125044692352404896e+00 -7.329845061580976262e-01 8.372529552501660755e-01 1.129421699993623962e+00 5.034678891636394926e-01 -5.834345942698818677e-01 0.000000000000000000e+00 0.000000000000000000e+00 0.000000000000000000e+00
1.000000000000000056e-01 -4.475767044896951319e+00 6.914123991600968466e+00 2.437243267039713501e+00 -8.122007951092802713e+00 1.636789339166547919e+01 7.923129309156139222e+00 0.000000000000000000e+00 0.000000000000000000e+00 0.000000000000000000e+00
1.000000000000000056e-01 2.593347178085458338e-01 4.987742731549305031e-01 -7.703595991649184183e-02 -5.625953328421138266e-01 -1.703740939425931744e+00 4.360862206626336945e-01 0.000000000000000000e+00 0.000000000000000000e+00 0.000000000000000000e+00
1.000000000000000056e-01 9.672347293933408752e-01 -1.775946373047232241e+00 -1.588869367099234875e-01 -5.130139031236943259e-01 1.047799084047919882e+00 1.471761905934821091e-01 0.000000000000000000e+00 0.000000000000000000e+00 0.000000000000000000e+00
1.000000000000000056e-01 7.808232619861860124e-02 -1.393700503481678510e-01 3.122322137454182078e-01 -1.602282429653828277e+00 -1.017355499578864286e+00 -3.805389696097370433e-01 0.000000000000000000e+00 0.000000000000000000e+00 0.000000000000000000e+00
1.000000000000000056e-01 -1.180523103518994255e+00 -2.574837576126862704e+00 -7.428781071125653002e-01 -2.786388834726162500e+00 -7.647622905927519810e+00 3.392414950825451414e-01 0.000000000000000000e+00 0.000000000000000000e+00 0.000000000000000000e+00
1.000000000000000056e-01 1.783157587617162018e-02 6.120918931072800717e-01 -4.975880217690100554e-02 1.342235012020643659e+00 -2.439894132663600335e+00 5.604743864485864924e-01 0.000000000000000000e+00 0.000000000000000000e+00 0.000000000000000000e+00
1.000000000000000056e-01 6.504239996741990604e-01 2.652881243628019137e-01 2.701694853156745291e-01 -2.005373125550201419e+00 -1.339789439821981398e+00 1.203766697378732542e-01 0.000000000000000000e+00 0.000000000000000000e+00 0.000000000000000000e+00
1.000000000000000056e-01 2.925042153807125844e-01 -1.909800213312227435e-01 1.294038964919788648e-01 -3.574150907381154485e-01 3.452088784821074618e+00 -2.057993444629096391e+00 0.000000000000000000e+00 0.000000000000000000e+00 0.000000000000000000e+00
1.000000000000000056e-01 6.462042095867388536e-01 1.002402456660741681e+00 -5.580391309261185651e-01 -1.858879477680452086e-01 2.680140533121167401e+00 1.054091849560780503e+00 0.000000000000000000e+00 0.000000000000000000e+00 0.000000000000000000e+00
1.000000000000000056e-01 1.185184544810576668e+00 1.872840140827097821e+00 1.730974813817834468e+00 -3.633308629307481774e-01 -6.437849723115397493e-01 -5.175163172401442413e-01 0.000000000000000000e+00 0.000000000000000000e+00 0.000000000000000000e+00
1.000000000000000056e-01 -8.458519681157108394e+00 -1.035827045588519679e+00 1.881182311900050053e+01 -1.346305400143286946e+01 -3.590133524378184671e+00 3.061398976013256856e+01 0.000000000000000000e+00 0.000000000000000000e+00 0.000000000000000000e+00
1.000000000000000056e-01 6.666902944847239443e-01 -7.502112336370139745e-02 1.743990309225706969e-01 1.403372346949043781e+00 2.691278040312241604e+00 -1.587998147846685582e+00 0.000000000000000000e+00 0.000000000000000000e+00 0.000000000000000000e+00
1.000000000000000056e-01 2.199816449297141485e+00 -5.654567172326760094e+00 -3.300878916789337758e+00 9.638970476800562182e+00 -1.701996593526052237e+01 -7.295647445309486834e+00 0.000000000000000000e+00 0.000000000000000000e+00 0.000000000000000000e+00
1.000000000000000056e-01 -2.114292523280681957e-01 -1.289761525954639110e+00 5.058725489472160053e-02 -1.462291675367213717e+00 -1.074633236953551840e+00 2.269417520435974112e+00 0.000000000000000000e+00 0.000000000000000000e+00 0.000000000000000000e+00
1.000000000000000056e-01 9.738748323483782388e-01 6.487324704917854512e-02 1.346208530696735517e+00 -9.833465400972277726e-01 6.370816471383590474e-02 -1.453537228061967390e+00 0.000000000000000000e+00 0.000000000000000000e+00 0.000000000000000000e+00
1.000000000000000056e-01 5.312699839165778704e-01 1.408723066465059903e-01 6.456493369764404466e-01 -1.112317161647429220e+00 -4.992776149583447176e-01 -1.751361054895534064e+00 0.000000000000000000e+00 0.000000000000000000e+00 0.000000000000000000e+00
