# Total Kinetic Energy: 15225.974821561358 J
# Total Potential Energy: -29056.491003447125 J
# Total Energy: -13830.516181885767 J
# mass x y z vx vy vz ax ay az
1.000000000000000021e-02 -9.875566551352691347e-01 2.083115717373741071e-01 1.200845749969915999e-01 -4.752839340037155746e-02 -1.741486801997659928e+00 -1.112647462863852077e+00 0.000000000000000000e+00 0.000000000000000000e+00 0.000000000000000000e+00
1.000000000000000021e-02 -9.055569178002617070e-01 -6.763241845610545866e-01 1.554287735448752539e+00 -1.124687307239718992e+00 9.423434243315408354e-01 -9.596128950051055484e-02 0.000000000000000000e+00 0.000000000000000000e+00 0.000000000000000000e+00
1.000000000000000021e-02 1.909304987257973929e+00 5.776285609968377921e-01 -1.549780385353546341e-01 2.939000000846082594e-01 1.996030076205099479e-01 -3.284682109021780372e-01 0.000000000000000000e+00 0.000000000000000000e+00 0.000000000000000000e+00
1.000000000000000021e-02 -1.835654421121756474e+00 -6.649089881737673124e-01 -3.694804498958184080e-01 1.446057967042954528e+00 -1.238704647830018435e-01 2.243296553150016803e-01 0.000000000000000000e+00 0.000000000000000000e+00 0.000000000000000000e+00
1.000000000000000021e-02 5.854908796706669305e-01 1.219510787403110141e+00 3.946817067619363267e-02 6.103112296066436349e-01 -1.195570641421334346e-01 -6.287832456807628256e-01 0.000000000000000000e+00 0.000000000000000000e+00 0.000000000000000000e+00
1.000000000000000021e-02 6.288121283282452900e-01 1.461968526750098141e+00 5.201549763133833659e-01 3.211409693092051043e-01 -3.083043378276053570e-01 1.394469511465410871e+00 0.000000000000000000e+00 0.000000000000000000e+00 0.000000000000000000e+00
1.000000000000000021e-02 -6.958459890977455320e-01 8.135703738703871091e-01 9.465189835662433104e-01 -7.178937372944805828e-01 -1.412444076284056660e+00 2.121582450989209612e+00 0.000000000000000000e+00 0.000000000000000000e+00 0.000000000000000000e+00
1.000000000000000021e-02 -1.286518214285472306e+00 1.680186135988250007e-01 1.076914222239287344e+00 6.612185124197328401e-01 3.398722849942222846e-01 -1.400010322747277991e+00 0.000000000000000000e+00 0.000000000000000000e+00 0.000000000000000000e+00
1.000000000000000021e-02 9.314613091481473983e-01 9.054263350747300543e-02 -8.015465489258569165e-02 1.391995683515221183e+00 9.434277749688334269e-02 -2.597537424939303508e-01 0.000000000000000000e+00 0.000000000000000000e+00 0.000000000000000000e+00
1.000000000000000021e-02 4.461000783289827409e-01 -1.839532359789797900e+00 -2.265327066964278602e-01 -1.555425708115483641e+00 5.915997724815885705e-01 -5.334172182286918140e-01 0.000000000000000000e+00 0.000000000000000000e+00 0.000000000000000000e+00
1.000000000000000021e-02 -1.439309528744047606e+00 1.459050494512043050e+00 -7.847001645785575130e-01 3.378660567531197728e-03 -5.666175900290404410e-01 -3.113135216488274182e-01 0.000000000000000000e+00 0.000000000000000000e+00 0.000000000000000000e+00
1.000000000000000021e-02 1.298033805376863414e+00 6.511297010996586199e-01 -4.301140005767309926e-01 -1.027705988866379094e+00 -4.248069010647481658e-01 1.239451673828777939e-02 0.000000000000000000e+00 0.000000000000000000e+00 0.000000000000000000e+00
1.000000000000000021e-02 2.279019306319025884e-01 -1.347612815309542356e-01 -3.537559285986698332e-01 4.785657945845830374e-01 2.123136802646805599e+00 7.844697854821902627e-01 0.000000000000000000e+00 0.000000000000000000e+00 0.000000000000000000e+00
1.000000000000000021e-02 2.687564211998387798e-01 -2.744254053377861990e-01 -2.189453910500438472e+00 5.962480476772111793e-01 -3.793538643190814130e-01 -4.208755874657520435e-01 0.000000000000000000e+00 0.000000000000000000e+00 0.000000000000000000e+00
1.000000000000000021e-02 -2.512580315614454385e+00 8.318154247307347759e-01 -5.210208102070825742e-01 -1.393127061774769526e+00 2.340262088203547419e-01 8.154269515594835260e-01 0.000000000000000000e+00 0.000000000000000000e+00 0.000000000000000000e+00
1.000000000000000021e-02 -1.367407241262921014e+00 8.731764369925997249e-01 7.436732818445033200e-01 1.414043041521022337e+00 -3.943004775751727253e-01 2.286455702298894332e-01 0.000000000000000000e+00 0.000000000000000000e+00 0.000000000000000000e+00
1.000000000000000021e-02 -6.590938901295128050e-01 1.865382561494864477e+00 1.195648536850749261e-01 -1.582974077867979945e+00 1.565749735252122798e+00 -1.102818798093349262e+00 0.000000000000000000e+00 0.000000000000000000e+00 0.000000000000000000e+00
1.000000000000000021e-02 -8.360611893028491171e-01 -7.303195287765756882e-01 5.265821157421994858e-01 -7.165392559901413438e-01 -1.378993475613839781e+00 1.214086848547063724e+00 0.000000000000000000e+00 0.000000000000000000e+00 0.000000000000000000e+00
1.000000000000000021e-02 1.228751512437139093e+00 -1.599509033009859582e+00 1.224216640404244938e+00 1.299815102367647635e+00 2.823739293008630247e-01 6.752104949625449271e-01 0.000000000000000000e+00 0.000000000000000000e+00 0.000000000000000000e+00
1.000000000000000021e-02 -9.619618889566581288e-01 9.190374819752503699e-01 9.075806821926493129e-01 -6.059141360685135203e-01 4.656376994773110956e-01 1.522551693412524054e+00 0.000000000000000000e+00 0.000000000000000000e+00 0.000000000000000000e+00
1.000000000000000021e-02 -3.582931636606241921e-01 1.099521616758714737e+00 1.372256860720824312e+00 1.917627852595708893e+00 -3.597109408971999600e-01 3.987003770208949471e-02 0.000000000000000000e+00 0.000000000000000000e+00 0.000000000000000000e+00
1.000000000000000021e-02 -1.425913967019730277e+00 9.707521665742127048e-01 -3.052927922771278557e-01 -8.555680805509783271e-01 5.636510790178104191e-01 6.636792707814912484e-01 0.000000000000000000e+00 0.000000000000000000e+00 0.000000000000000000e+00
1.000000000000000021e-02 5.262253046594483896e-01 -1.201660993074190165e+00 1.242120415602396277e-01 1.378610652562338793e-02 -2.418360332231658250e-01 1.203561708650282780e+00 0.000000000000000000e+00 0.000000000000000000e+00 0.000000000000000000e+00
1.000000000000000021e-02 -5.486802020613347208e-01 9.891768356732708600e-01 7.716219109241853058e-01 -5.089879050564227736e-01 2.183710573636570285e+00 -1.572856868490617455e+00 0.000000000000000000e+00 0.000000000000000000e+00 0.000000000000000000e+00
1.000000000000000021e-02 9.757084170980689919e-02 3.014384006050255249e-01 5.273711338798910964e-01 4.502640163383757610e-01 -6.481066731858174945e-01 -1.660538663789165037e+00 0.000000000000000000e+00 0.000000000000000000e+00 0.000000000000000000e+00
1.000000000000000021e-02 7.258831241235070841e-01 8.814136001088904715e-01 -1.423278549251685066e+00 -4.284605663527926711e-01 4.955601724489931414e-01 9.660365735008912269e-01 0.000000000000000000e+00 0.000000000000000000e+00 0.000000000000000000e+00
1.000000000000000021e-02 -4.426508521783766303e-01 1.702566218616237137e+00 -2.099376529588119489e-01 -1.114083214630462448e+00 2.324028857614495180e+00 6.427215645494929741e-02 0.000000000000000000e+00 0.000000000000000000e+00 0.000000000000000000e+00
1.000000000000000021e-02 -5.132189052311943861e-02 -8.870583304616395104e-01 4.885871995852537064e-01 2.893804157561129520e-01 5.411958023487210001e-01 1.374617348438706976e+00 0.000000000000000000e+00 0.000000000000000000e+00 0.000000000000000000e+00
1.000000000000000021e-02 8.073990215200881060e-02 7.918355992815941935e-01 3.378593868607286388e-01 -1.441232112639918350e+00 -1.785806353832585680e+00 -5.612995809159339045e-01 0.000000000000000000e+00 0.000000000000000000e+00 0.000000000000000000e+00
1.000000000000000021e-02 9.880178123161221793e-01 -1.015925369716067728e+00 4.378321481950566696e-01 -3.335226265177063110e-01 3.355201856523358506e-02 -3.127988446299458797e-02 0.000000000000000000e+00 0.000000000000000000e+00 0.000000000000000000e+00
1.000000000000000021e-02 1.032541284848600194e+00 1.603781289404767607e+00 -7.787560791920078440e-01 8.720236492598345546e-01 2.104982523441966791e+00 4.282631049291844016e-01 0.000000000000000000e+00 0.000000000000000000e+00 0.000000000000000000e+00
1.000000000000000021e-02 -1.045094989627186388e+00 9.284230664332433491e-01 6.102057400154884403e-01 -1.412822253717561649e+00 1.374457903845203721e-01 9.249641486490187692e-01 0.000000000000000000e+00 0.000000000000000000e+00 0.000000000000000000e+00
1.000000000000000021e-02 3.107383614870504185e-01 -6.845987142528272562e-01 -1.609858779914427274e+00 8.749552905409326842e-01 -9.326615216121908469e-01 4.116936833246914174e-01 0.000000000000000000e+00 0.000000000000000000e+00 0.000000000000000000e+00
1.000000000000000021e-02 3.957259892560519021e-01 -2.533452690966299325e+00 1.077889950414299691e-01 -3.682644498029675195e-01 -9.076926216262296565e-01 -9.828459048587279145e-02 0.000000000000000000e+00 0.000000000000000000e+00 0.000000000000000000e+00
1.000000000000000021e-02 -4.196440578472068750e-01 7.941305223798044155e-01 5.995470620702810782e-01 3.650528836753695952e-03 -4.219613037121001942e-02 2.674060506447734298e+00 0.000000000000000000e+00 0.000000000000000000e+00 0.000000000000000000e+00
1.000000000000000021e-02 -1.628391240652006244e+00 -7.045303879247982737e-01 -3.805813688344561463e-01 4.404542488760473246e-02 2.780113998981705303e-01 2.189006099908797354e-01 0.000000000000000000e+00 0.000000000000000000e+00 0.000000000000000000e+00
1.000000000000000021e-02 -6.705532876970587974e-01 -3.252026607010946035e-01 1.853198116955251384e-01 -1.547516161565622161e-01 -1.119830229567967267e-01 -4.875835129529585976e-01 0.000000000000000000e+00 0.000000000000000000e+00 0.000000000000000000e+00
1.000000000000000021e-02 -2.835558788644322870e-01 -3.328598715297759886e-02 -1.346022212459786926e+00 6.107459627091007537e-01 4.661439469063706209e-01 1.349267970303840158e+00 0.000000000000000000e+00 0.000000000000000000e+00 0.000000000000000000e+00
1.000000000000000021e-02 -6.071731845017235285e-01 -1.182404877771509710e+00 -4.093664129740934854e-01 -9.232083163503748136e-01 -1.158061334654260088e-01 -1.054113946037594118e+00 0.000000000000000000e+00 0.000000000000000000e+00 0.000000000000000000e+00
1.000000000000000021e-02 1.195295268424060087e+00 -3.188049647502867456e-01 -4.702163331069121321e-01 2.481759441110411024e-01 6.557908466200577102e-01 9.589517933476842115e-01 0.000000000000000000e+00 0.000000000000000000e+00 0.000000000000000000e+00
1.000000000000000021e-02 -2.026843832971092219e-01 2.011385822952085622e-01 7.477559145783693739e-02 3.960408812209801899e-01 -1.953558479587095720e+00 -1.550408308050698958e+00 0.000000000000000000e+00 0.000000000000000000e+00 0.000000000000000000e+00
1.000000000000000021e-02 -1.869437392532472819e-01 4.406817609923651125e-01 5.926555553401454679e-01 1.934978145768278812e-01 2.013131729701585562e-02 1.168976896317337921e+00 0.000000000000000000e+00 0.000000000000000000e+00 0.000000000000000000e+00
1.000000000000000021e-02 8.579387503692049721e-01 4.607910365105838402e-01 5.805612547693260739e-01 -5.118042597804054461e-01 1.061780543844916269e-01 -2.066751946790980732e+00 0.000000000000000000e+00 0.000000000000000000e+00 0.000000000000000000e+00
1.000000000000000021e-02 8.119412671632239009e-01 3.133681290990451007e-01 1.282096458134570405e+00 -2.914589613082733122e-01 -9.905744074687871104e-01 2.853324607500513643e-01 0.000000000000000000e+00 0.000000000000000000e+00 0.000000000000000000e+00
1.000000000000000021e-02 -1.768561785005938525e+00 1.169302501019835239e+00 5.681810389791897009e-01 1.597585738337892414e+00 8.407097496562114802e-01 -2.736798268843765314e-01 0.000000000000000000e+00 0.000000000000000000e+00 0.000000000000000000e+00
1.000000000000000021e-02 7.574561486591464554e-01 7.977711112589322973e-01 -1.973871061765509333e-02 1.423214334707620654e-01 7.574618164501516204e-02 -1.499191334032366374e+00 0.000000000000000000e+00 0.000000000000000000e+00 0.000000000000000000e+00
1.000000000000000021e-02 1.775738200554732860e-02 -8.853980230075986224e-01 -1.153720260492965055e+00 -1.482623443575237676e+00 2.097577241584301644e-02 -2.187308258180278853e-02 0.000000000000000000e+00 0.000000000000000000e+00 0.000000000000000000e+00
1.000000000000000021e-02 5.730518256257894905e-01 -2.158287160718212194e-01 -5.393490950938100159e-01 1.539107361002734153e+00 2.903664272854213912e-01 -1.854532897323895035e+00 0.000000000000000000e+00 0.000000000000000000e+00 0.000000000000000000e+00
1.000000000000000021e-02 8.487508767220926231e-02 -1.128348281212259385e+00 -2.253719142471729331e+00 -1.163347434681988313e+00 -1.107571730612275873e+00 -3.272340620531883904e-01 0.000000000000000000e+00 0.000000000000000000e+00 0.000000000000000000e+00
1.000000000000000021e-02 1.023452328769005382e+00 -1.962909916219855722e-01 1.900452582996620787e+00 -4.604916062901855955e-01 -5.372025363459769220e-01 -8.661423904767334703e-01 0.000000000000000000e+00 0.000000000000000000e+00 0.000000000000000000e+00
1.000000000000000021e-02 7.662540011882749136e-01 -1.311257888228545054e+00 -7.003546172511242451e-01 -6.647354853626433746e-01 1.122051392674554338e+00 7.265667265754652826e-01 0.000000000000000000e+00 0.000000000000000000e+00 0.000000000000000000e+00
1.000000000000000021e-02 2.201732313380038608e+00 -1.602032836407439653e+00 4.884400688057007334e-01 2.350661145668002383e-01 4.353169494621146329e-01 -1.400947309466245849e-01 0.000000000000000000e+00 0.000000000000000000e+00 0.000000000000000000e+00
1.000000000000000021e-02 8.000154685115953290e-01 1.628463947142216650e+00 1.083588399438393912e+00 8.539863312246741556e-01 4.444032434310932200e-01 3.661926015181690697e-01 0.000000000000000000e+00 0.000000000000000000e+00 0.000000000000000000e+00
1.000000000000000021e-02 -1.026542164775380295e+00 3.990204409563902765e-01 3.034334390299108231e-01 2.109230117127939952e+00 -7.011535850985577412e-01 7.436192932585865556e-01 0.000000000000000000e+00 0.000000000000000000e+00 0.000000000000000000e+00
1.000000000000000021e-02 1.337146334857486352e+00 -1.207319958060679710e+00 -1.541799525039829311e+00 4.516276398800243008e-01 -1.032821120725269770e+00 -1.692655558666946447e-01 0.000000000000000000e+00 0.000000000000000000e+00 0.000000000000000000e+00
1.000000000000000021e-02 -1.293918813378013843e-01 -3.957003826542335179e-01 -7.101885017249080778e-02 4.287997899045872807e-01 4.247054047128291931e-01 4.469918544433493790e-01 0.000000000000000000e+00 0.000000000000000000e+00 0.000000000000000000e+00
1.000000000000000021e-02 1.387328344484754172e+00 -1.494905053418063456e+00 -1.150949885671358253e+00 2.399036504540184855e-01 1.079602196966626071e+00 1.258046469063465622e+00 0.000000000000000000e+00 0.000000000000000000e+00 0.000000000000000000e+00
1.000000000000000021e-02 6.637199589021849366e-01 1.493953218400756899e+00 2.131610081603964257e+00 5.350513607566490526e-01 -2.481256286392134580e+00 -1.056697797425672158e+00 0.000000000000000000e+00 0.000000000000000000e+00 0.000000000000000000e+00
1.000000000000000021e-02 4.754574764162949885e-01 -2.248469128622501145e-01 6.658310071658033458e-01 -1.507807748273157111e+00 -7.325171897539946020e-01 -7.464649828201740389e-01 0.000000000000000000e+00 0.000000000000000000e+00 0.000000000000000000e+00
1.000000000000000021e-02 7.122295131682249147e-01 -3.586662271957455905e-01 -3.698266001304345019e-01 5.918151617653427676e-01 3.011569352348137385e-01 -1.096712335207044031e+00 0.000000000000000000e+00 0.000000000000000000e+00 0.000000000000000000e+00
1.000000000000000021e-02 -4.685549978491548168e-02 2.915639329766417931e-01 3.594791910465749418e-01 -3.445569972520832747e-01 3.510105296030180955e-01 -7.176926901874575160e-01 0.000000000000000000e+00 0.000000000000000000e+00 0.000000000000000000e+00
1.000000000000000021e-02 4.783081730637959161e-01 8.119469812776405337e-01 1.488854559772662789e+00 5.180473056913006413e-01 -1.474584146576376265e+00 -1.662529622919824840e-02 0.000000000000000000e+00 0.000000000000000000e+00 0.000000000000000000e+00
1.000000000000000021e-02 4.786919434848126431e-01 1.185409113448664176e+00 -5.093342744479230355e-02 -1.945989053391978391e-02 8.761516008156218227e-01 1.209931634435757131e+00 0.000000000000000000e+00 0.000000000000000000e+00 0.000000000000000000e+00
1.000000000000000021e-02 -2.039553835183160579e+00 1.309205635380513488e+00 -1.071174610582681597e+00 7.012431706972269696e-01 9.228822958793923836e-02 8.790001810100868118e-01 0.000000000000000000e+00 0.000000000000000000e+00 0.000000000000000000e+00
1.000000000000000021e-02 8.130842160438997990e-01 6.857679918176562417e-01 -2.202579042518396646e-01 -3.747615268569035596e-01 -1.716165643492164605e+00 -3.102721058906520168e-01 0.000000000000000000e+00 0.000000000000000000e+00 0.000000000000000000e+00
1.000000000000000021e-02 9.834339958819593441e-01 4.597991344050400553e-01 -6.615865282895299071e-01 -5.939885433978152607e-01 -1.740743291781941426e+00 1.412927810755231217e+00 0.000000000000000000e+00 0.000000000000000000e+00 0.000000000000000000e+00
1.000000000000000021e-02 1.684976736583594370e-01 -1.427623617770097109e-01 5.749637263570956947e-01 -2.886441534737081982e-01 -7.174978659996773811e-02 -1.150704437847783757e+00 0.000000000000000000e+00 0.000000000000000000e+00 0.000000000000000000e+00
1.000000000000000021e-02 -1.016121592803165413e-01 -4.337650102849751055e-01 5.464933040461044111e-01 6.063726828416950987e-01 -1.268797618047817988e+00 -4.891344526145254279e-01 0.000000000000000000e+00 0.000000000000000000e+00 0.000000000000000000e+00
1.000000000000000021e-02 7.523861186891308561e-01 1.162341268728022570e+00 -6.575781597249721333e-01 2.558664521966035332e-01 1.782193370039532931e+00 3.269708322611951101e-01 0.000000000000000000e+00 0.000000000000000000e+00 0.000000000000000000e+00
1.000000000000000021e-02 6.012172417096046662e-01 -7.801174260121274129e-01 3.178298391743796247e-01 2.262725049443563285e-01 -1.329586606697002571e+00 3.977559414137837313e-01 0.000000000000000000e+00 0.000000000000000000e+00 0.000000000000000000e+00
1.000000000000000021e-02 -4.386934542377921575e-01 1.690142964911161894e+00 1.077041803534475539e+00 1.126251093700155609e-02 -6.347433202271084429e-01 -8.058072591647451599e-01 0.000000000000000000e+00 0.000000000000000000e+00 0.000000000000000000e+00
1.000000000000000021e-02 -6.014457349439101819e-01 4.200256036827485495e-01 1.901632544422882543e+00 -5.292179606971296746e-01 1.394023590431610948e+00 2.466011251173374941e+00 0.000000000000000000e+00 0.000000000000000000e+00 0.000000000000000000e+00
1.000000000000000021e-02 -3.323065301470313759e-01 -7.907170435332324665e-01 -1.810050855176167817e+00 -4.145524148614151277e-02 -9.911369021763454246e-01 1.827798364418872223e+00 0.000000000000000000e+00 0.000000000000000000e+00 0.000000000000000000e+00
1.000000000000000021e-02 -2.556863596990911480e-01 -1.305316958094943081e+00 -4.345121878904794621e-01 -3.716946463220203722e-01 2.922881354584740965e-01 -1.553369078162370465e-01 0.000000000000000000e+00 0.000000000000000000e+00 0.000000000000000000e+00
1.000000000000000021e-02 -6.151102327623689803e-01 -3.241431608043413570e-01 -1.902708271608513080e+00 2.736919155275395754e-01 1.435993680101140257e-01 -9.884139460249765641e-01 0.000000000000000000e+00 0.000000000000000000e+00 0.000000000000000000e+00
1.000000000000000021e-02 5.186540586933126029e-01 3.628044000704062078e-01 -9.991951818399332774e-01 6.207573259409908673e-01 5.466711325086086593e-01 3.463263293257418662e-01 0.000000000000000000e+00 0.000000000000000000e+00 0.000000000000000000e+00
1.000000000000000021e-02 -1.534172479120134325e+00 4.393839261070967006e-01 2.941489350666512959e-01 2.314943787685519450e+00 1.458752879494332300e+00 4.082756593829838243e-01 0.000000000000000000e+00 0.000000000000000000e+00 0.000000000000000000e+00
1.000000000000000021e-02 9.197913901240232226e-01 2.718699168668682886e-01 4.526061308726874177e-01 7.941853976486820677e-02 1.920130511632321291e+00 4.517148912563027086e-01 0.000000000000000000e+00 0.000000000000000000e+00 0.000000000000000000e+00
1.000000000000000021e-02 1.295405398737787150e+00 -4.505733364143114095e-01 1.065906422122826630e-01 -2.005683136559926472e-01 1.491717486107296819e+00 2.022376182887585250e-01 0.000000000000000000e+00 0.000000000000000000e+00 0.000000000000000000e+00
1.000000000000000021e-02 -4.640725863734500578e-01 -2.327928537980346879e-01 -1.086417593594484643e+00 4.784914880063922404e-01 8.019281003468424762e-01 7.312709354516445659e-01 0.000000000000000000e+00 0.000000000000000000e+00 0.000000000000000000e+00
1.000000000000000021e-02 -2.936618336484960179e-01 -6.115439940495936977e-01 -1.025195218818305415e-01 7.360157738357798740e-01 -7.487563066676907741e-01 1.494648881840314081e+00 0.000000000000000000e+00 0.000000000000000000e+00 0.000000000000000000e+00
1.000000000000000021e-02 -9.295769703581916454e-01 -1.071641617036489080e+00 1.242556391595086351e+00 1.799936940767658866e+00 2.503466769804886027e+00 -3.451331217316724875e-01 0.000000000000000000e+00 0.000000000000000000e+00 0.000000000000000000e+00
1.000000000000000021e-02 -1.225184444922331028e+00 -6.726784920209154528e-01 6.844840467015890217e-01 1.288856349118062461e+00 -1.200580452955598287e-01 -5.326827554434995227e-01 0.000000000000000000e+00 0.000000000000000000e+00 0.000000000000000000e+00
1.000000000000000021e-02 3.962207327841632543e-01 -4.318176931483549974e-01 -9.187806070305786221e-01 -2.943574135840273942e-01 1.278831482955809506e-01 -2.699028543303095606e+00 0.000000000000000000e+00 0.000000000000000000e+00 0.000000000000000000e+00
1.000000000000000021e-02 -5.845375046029082089e-01 8.577069084300587010e-02 -4.831156301788170349e-01 -6.961967580008587841e-01 -1.665736403186198200e-01 1.810541211869023392e+00 0.000000000000000000e+00 0.000000000000000000e+00 0.000000000000000000e+00
1.000000000000000021e-02 1.977991518045803532e-01 -8.319902816823649960e-01 -1.200017147171623222e+00 -1.432215350681690147e+00 1.517974941323269045e+00 -3.566602245627114032e-01 0.000000000000000000e+00 0.000000000000000000e+00 0.000000000000000000e+00
1.000000000000000021e-02 2.049066069146719682e-01 -1.985437782422764530e-01 -1.479419119525117843e+00 1.704931756256765352e-01 3.452577108429941699e-01 -6.371471692941705900e-01 0.000000000000000000e+00 0.000000000000000000e+00 0.000000000000000000e+00
1.000000000000000021e-02 -1.238752175107891706e-01 -2.133133810521955220e-01 -1.706916363692832173e+00 -6.292634130984453567e-01 1.854593510435584180e+00 -1.406147459980245928e+00 0.000000000000000000e+00 0.000000000000000000e+00 0.000000000000000000e+00
1.000000000000000021e-02 3.283597705528100708e-01 -1.609761395359072811e+00 -3.588956114750785353e-01 -1.879869881966702849e-01 -6.380048401975222383e-01 2.727234559865485686e+00 0.000000000000000000e+00 0.000000000000000000e+00 0.000000000000000000e+00
1.000000000000000021e-02 1.775698969855030285e+00 -1.816148762343181788e+00 -1.468516974839092007e-02 2.121605724162726747e-01 6.334141241418775881e-01 -1.645127911224985306e-01 0.000000000000000000e+00 0.000000000000000000e+00 0.000000000000000000e+00
1.000000000000000021e-02 1.776174726976369023e+00 8.888454686272750926e-01 -1.089757405847372462e+00 1.644115315753176931e+00 -1.186079114909697335e-01 4.754824090808519865e-01 0.000000000000000000e+00 0.000000000000000000e+00 0.000000000000000000e+00
1.000000000000000021e-02 -1.221049257422905654e-02 -4.521973954168131971e-01 4.128505939335698760e-01 3.142117698983618368e+00 -1.270899994577686876e+00 1.781431784688780606e+00 0.000000000000000000e+00 0.000000000000000000e+00 0.000000000000000000e+00
1.000000000000000021e-02 -1.192511305080938389e+00 -9.029289131152424819e-01 8.183380080808589918e-01 -7.895860369671622858e-02 8.838650672347204695e-01 -5.903532937611929432e-01 0.000000000000000000e+00 0.000000000000000000e+00 0.000000000000000000e+00
1.000000000000000021e-02 -1.364265601925664928e-01 5.925919965114178067e-01 9.922347832967487458e-02 -1.470611227944392585e+00 5.896903865410854095e-01 1.101021779736933714e+00 0.000000000000000000e+00 0.000000000000000000e+00 0.000000000000000000e+00
1.000000000000000021e-02 1.110942180816756997e+00 -1.088208154385481352e+00 -3.689555885068694641e-02 1.315405583340789164e+00 1.885975889173453934e+00 -1.366636346449598083e+00 0.000000000000000000e+00 0.000000000000000000e+00 0.000000000000000000e+00
1.000000000000000021e-02 -1.325424680157911705e-01 1.620064808227734909e+00 -4.321520946714489386e-01 1.558468506062247183e-01 4.321961470378737902e-01 -1.330210533299219788e+00 0.000000000000000000e+00 0.000000000000000000e+00 0.000000000000000000e+00
1.000000000000000021e-02 1.553173502624993763e-01 8.324366122447580674e-01 8.000058845633331028e-01 -1.513740039297831075e+00 6.504139300048735750e-01 1.543461992889969547e+00 0.000000000000000000e+00 0.000000000000000000e+00 0.000000000000000000e+00
1.000000000000000021e-02 1.807903464246551462e+00 -6.734395487013679071e-01 -1.731808800966608830e+00 -1.058123062646337154e+00 -1.309298879007120942e+00 3.243140272541096270e-01 0.000000000000000000e+00 0.000000000000000000e+00 0.000000000000000000e+00
1.000000000000000021e-02 -6.034669686097051677e-01 3.943506442060055323e-02 -1.058569182746299964e+00 2.625853124834510166e-01 7.311190511393418356e-01 1.770614371800738773e+00 0.000000000000000000e+00 0.000000000000000000e+00 0.000000000000000000e+00
1.000000000000000021e-02 -1.115159871781675305e+00 1.172223178390200404e+00 3.572302904312713578e-01 -8.272938870477458684e-01 -1.132136728003133364e+00 7.029931116203128605e-01 0.000000000000000000e+00 0.000000000000000000e+00 0.000000000000000000e+00
1.000000000000000021e-02 3.980590237194754355e-01 4.157165956574353505e-01 -1.455331330004394852e+00 -2.001372387917983720e-01 2.033297528833601486e+00 -3.005537589093971174e-01 0.000000000000000000e+00 0.000000000000000000e+00 0.000000000000000000e+00
1.000000000000000021e-02 -1.676233667104777558e-01 -1.693118501711344814e-01 1.177499778760622950e+00 3.231026466254256491e-01 5.207367074766405812e-01 -1.295100275339996776e-01 0.000000000000000000e+00 0.000000000000000000e+00 0.000000000000000000e+00
1.000000000000000021e-02 3.193271030928820919e-01 -1.702048935574098920e-01 3.420614780962000223e-01 -6.341536161298209073e-01 7.704213917633279118e-01 -5.153704135096124350e-01 0.000000000000000000e+00 0.000000000000000000e+00 0.000000000000000000e+00
1.000000000000000021e-02 -2.847772073607669485e-01 -1.028061230951856198e+00 1.514919243493217271e+00 -1.080372981340578381e-01 1.027208722849183076e+00 1.568324896040674599e+00 0.000000000000000000e+00 0.000000000000000000e+00 0.000000000000000000e+00
1.000000000000000021e-02 -1.365420033955352830e+00 -6.921099782659075883e-01 -8.578673864796071413e-01 1.665216288617763496e+00 1.174908157766263672e+00 7.350067621043325505e-02 0.000000000000000000e+00 0.000000000000000000e+00 0.000000000000000000e+00
1.000000000000000021e-02 -9.914880337993613457e-01 -1.657227099681508053e-01 -5.648721034169252864e-01 9.508774304109297582e-01 1.385529858768556055e+00 -4.441884051740154771e-01 0.000000000000000000e+00 0.000000000000000000e+00 0.000000000000000000e+00
1.000000000000000021e-02 -5.055218201440375703e-01 4.508983166503898743e-01 7.268395466043994779e-02 1.950223430405149116e+00 -1.050895352325434962e+00 -6.824881719433936178e-01 0.000000000000000000e+00 0.000000000000000000e+00 0.000000000000000000e+00
1.000000000000000021e-02 -1.718525100422917173e+00 -3.413085609129798303e+00 5.929921105835357364e-01 7.541093801458896850e-01 -1.151094376042231637e+00 1.458301148878331732e+00 0.000000000000000000e+00 0.000000000000000000e+00 0.000000000000000000e+00
1.000000000000000021e-02 -4.379851542997206804e-01 4.314319408782950616e-01 -6.649105055759377270e-02 -3.945737723724929147e-02 -1.364046565519620335e+00 -1.038528938980003868e+00 0.000000000000000000e+00 0.000000000000000000e+00 0.000000000000000000e+00
1.000000000000000021e-02 -3.573676219120597297e-01 -1.056421550159681866e+00 -1.024491505039518691e+00 -1.072944104403676269e+00 2.423440949201796535e+00 6.133336954113032258e-01 0.000000000000000000e+00 0.000000000000000000e+00 0.000000000000000000e+00
1.000000000000000021e-02 -1.130751793073746736e+00 -8.397815753277372286e-01 2.081702210869623482e+00 2.610003593995869897e-01 -1.534503166230571924e-01 2.424799526599197841e-01 0.000000000000000000e+00 0.000000000000000000e+00 0.000000000000000000e+00
1.000000000000000021e-02 -3.573030886304346954e-01 1.360821826023177472e-01 -7.496365597529682789e-01 2.824500465786155545e-01 -6.172247410077877361e-02 1.366765361405515855e-01 0.000000000000000000e+00 0.000000000000000000e+00 0.000000000000000000e+00
1.000000000000000021e-02 -1.749657596657374192e+00 -1.267391562538385585e+00 2.497606391677239523e-01 1.276771982590065024e-01 -3.566579574798649233e-02 -1.384045653536317033e+00 0.000000000000000000e+00 0.000000000000000000e+00 0.000000000000000000e+00
1.000000000000000021e-02 -7.759402239464938678e-01 -8.942579391010704315e-01 6.832233612067885042e-01 7.394209016748289065e-02 -1.747067738516804747e+00 1.402403913280173275e-01 0.000000000000000000e+00 0.000000000000000000e+00 0.000000000000000000e+00
1.000000000000000021e-02 -2.340678827964701725e+00 -3.627229794731603452e-01 -8.286059748306338901e-03 -1.233158891856807937e+00 -5.799411920703434475e-02 1.722541976125020025e+00 0.000000000000000000e+00 0.000000000000000000e+00 0.000000000000000000e+00
1.000000000000000021e-02 1.420636161605185466e-01 5.609570276560755797e-01 4.356150831044048877e-01 -1.746532629594957697e+00 -1.108092061175251386e+00 -2.412969824527497475e-01 0.000000000000000000e+00 0.000000000000000000e+00 0.000000000000000000e+00
1.000000000000000021e-02 3.322468577352626351e-01 -4.747141741870638532e-01 7.820784153448828713e-02 -2.458161141184941195e-02 -8.941503179460674744e-02 -1.034781578816380776e+00 0.000000000000000000e+00 0.000000000000000000e+00 0.000000000000000000e+00
1.000000000000000021e-02 3.987854561547964916e-01 8.762101026502900902e-01 4.772221081017383737e-01 6.592873350906754970e-01 -1.498880521104086094e+00 -7.160001250098881886e-01 0.000000000000000000e+00 0.000000000000000000e+00 0.000000000000000000e+00
1.000000000000000021e-02 3.197992498563413388e-01 5.915639463935142839e-01 -5.309595628308354520e-01 -6.053956645741955800e-01 -8.937794128122659165e-01 -5.656505614885988242e-01 0.000000000000000000e+00 0.000000000000000000e+00 0.000000000000000000e+00
1.000000000000000021e-02 1.639008595208091723e+00 1.488776550908539331e+00 -7.478902967835900917e-01 -7.607705849731145609e-01 1.055414498513784355e-01 9.768308068414435219e-01 0.000000000000000000e+00 0.000000000000000000e+00 0.000000000000000000e+00
1.000000000000000021e-02 1.477040690352111607e-01 1.685849041571296780e-01 -1.057757239910691593e+00 2.844436673497399704e-01 -4.615847024865198378e-01 -2.270343626832756201e-01 0.000000000000000000e+00 0.000000000000000000e+00 0.000000000000000000e+00
1.000000000000000021e-02 -1.298393140896013098e-01 1.134304576308491574e+00 1.657101427509011016e+00 4.849048331841412374e-01 -2.771628680892423424e-01 -2.130606880420062021e-01 0.000000000000000000e+00 0.000000000000000000e+00 0.000000000000000000e+00
1.000000000000000021e-02 -2.288781082913808052e-01 3.763827249056937718e-02 -1.193385878790383270e+00 5.417674690854803465e-01 -4.409811721222675063e-01 -1.174887517906338275e+00 0.000000000000000000e+00 0.000000000000000000e+00 0.000000000000000000e+00
1.000000000000000021e-02 -2.512907268017762139e-02 5.763389382982435638e-01 -9.894910119805920834e-01 -4.942885305666148976e-02 -2.880734571093375718e-01 -7.911888346007318606e-01 0.000000000000000000e+00 0.000000000000000000e+00 0.000000000000000000e+00
1.000000000000000021e-02 -9.927910532078065842e-01 1.401226305846524189e+00 1.205486878330704892e-01 2.124940090458188546e+00 -4.299076078956072799e-01 -2.339383279341195720e+00 0.000000000000000000e+00 0.000000000000000000e+00 0.000000000000000000e+00
1.000000000000000021e-02 8.557934944060423543e-01 -4.329847566065834208e-01 1.255361304317739624e+00 2.314181193172251405e-01 -1.412379016276516630e+00 8.545384729641940513e-01 0.000000000000000000e+00 0.000000000000000000e+00 0.000000000000000000e+00
1.000000000000000021e-02 7.077671257012195516e-02 -1.653666300390816746e+00 4.561071544000947497e-01 -3.034397452106544213e-01 -1.952284251647909974e-01 -6.556152191287484277e-01 0.000000000000000000e+00 0.000000000000000000e+00 0.000000000000000000e+00
1.000000000000000021e-02 -2.551804044791268211e-01 4.806495444090223834e-03 -1.249206180654959919e+00 3.359670961562243874e-01 6.137603299387557332e-01 -5.391763401797378119e-01 0.000000000000000000e+00 0.000000000000000000e+00 0.000000000000000000e+00
1.000000000000000021e-02 -2.374755986371819838e-01 1.210622364934743844e+00 -1.694529317893079812e-01 -2.797143056673678241e-01 -1.750977586149530529e-01 7.811030423209428530e-01 0.000000000000000000e+00 0.000000000000000000e+00 0.000000000000000000e+00
1.000000000000000021e-02 -4.920977970780200383e-01 9.130790658494483125e-01 -7.893090007037056877e-01 3.893691741239797000e-01 -8.657135244279109410e-01 -7.596379133952865792e-02 0.000000000000000000e+00 0.000000000000000000e+00 0.000000000000000000e+00
1.000000000000000021e-02 2.475189388985476191e-01 -3.075178722676648047e-01 4.300065624989756752e-01 3.562435879597886657e-01 -1.047107384243115974e-01 -2.579650650555026292e+00 0.000000000000000000e+00 0.000000000000000000e+00 0.000000000000000000e+00
1.000000000000000021e-02 1.696305769202403502e+00 -4.841867324159565555e-01 -1.729906725093996567e+00 -7.285771274673416009e-01 -1.055279739075476453e+00 2.262168024011999901e+00 0.000000000000000000e+00 0.000000000000000000e+00 0.000000000000000000e+00
1.000000000000000021e-02 -9.128847201451176785e-01 1.492747663447622219e+00 -5.373334669496845351e-01 2.347914959251525269e-01 -4.660137952058489991e-02 -2.373247937748508563e-01 0.000000000000000000e+00 0.000000000000000000e+00 0.000000000000000000e+00
1.000000000000000021e-02 -1.641272106663497210e+00 -1.737440194270428062e+00 1.917978501669648894e+00 8.915277703215626071e-01 -3.250782125830872227e-01 1.226066325340244401e+00 0.000000000000000000e+00 0.000000000000000000e+00 0.000000000000000000e+00
1.000000000000000021e-02 -1.553661731945660263e+00 1.642830677078102597e-01 -8.545991269941679569e-01 -4.824256431487671248e-01 -1.868502296929826612e+00 2.456420174328326905e-02 0.000000000000000000e+00 0.000000000000000000e+00 0.000000000000000000e+00
1.000000000000000021e-02 -2.279906506967741553e+00 9.705222974579976736e-01 4.114908713670479279e-01 -1.491088073754542886e+00 -1.347123366172025438e+00 -1.746333321573364794e-01 0.000000000000000000e+00 0.000000000000000000e+00 0.000000000000000000e+00
1.000000000000000021e-02 5.067896224163559449e-01 -6.767872134675690932e-01 2.230557475234368203e-01 -3.253551758513911207e-01 1.305341371467034550e+00 -2.932845622351741288e-01 0.000000000000000000e+00 0.000000000000000000e+00 0.000000000000000000e+00
1.000000000000000021e-02 4.253450540603431057e-02 7.486040504701183540e-01 7.655444596153428982e-01 1.616435649140715025e+00 -3.743372393594320835e-01 -1.369722600642053090e+00 0.000000000000000000e+00 0.000000000000000000e+00 0.000000000000000000e+00
1.000000000000000021e-02 1.117780953663342958e+00 4.675543304892493951e-02 -2.904676062607811082e-02 1.124593465155649952e+00 7.298786476209317454e-03 -5.609697032021713214e-01 0.000000000000000000e+00 0.000000000000000000e+00 0.000000000000000000e+00
1.000000000000000021e-02 -3.103566900512058635e-01 -4.859049478267389865e-01 5.344328038745594922e-01 4.145089786372530560e-01 -1.094226405127156410e+00 6.401151571004763952e-01 0.000000000000000000e+00 0.000000000000000000e+00 0.000000000000000000e+00
1.000000000000000021e-02 8.830933772997148767e-02 -1.563217645661221789e-02 2.912789026327877728e-02 -9.666285172001359838e-01 8.127958615776637030e-01 -1.090409147190779804e-01 0.000000000000000000e+00 0.000000000000000000e+00 0.000000000000000000e+00
1.000000000000000021e-02 1.274357285648256566e+00 -3.294002482917809171e+00 -4.750447234788642281e-01 8.057655704461481605e-01 -1.544273832449699402e+00 -2.617757450987314716e-01 0.000000000000000000e+00 0.000000000000000000e+00 0.000000000000000000e+00
1.000000000000000021e-02 -5.575400953504181523e-01 1.335436653632506854e+00 -1.308197475454736303e+00 -1.636621630222223844e+00 -8.883514048881315794e-01 -1.034512812096110235e+00 0.000000000000000000e+00 0.000000000000000000e+00 0.000000000000000000e+00
1.000000000000000021e-02 -7.861387074457321100e-01 8.922218773477301745e-01 -2.990895764426422687e+00 -1.283319007556764868e+00 1.715904132740710297e+00 1.757302010173562024e-01 0.000000000000000000e+00 0.000000000000000000e+00 0.000000000000000000e+00
1.000000000000000021e-02 -9.145362208198307696e-01 -1.237645840698675670e+00 -1.381728276239217790e+00 -8.781536184090982244e-01 1.266461393425348136e+00 7.080764141311892690e-01 0.000000000000000000e+00 0.000000000000000000e+00 0.000000000000000000e+00
1.000000000000000021e-02 1.252972016038801595e+00 -4.283476243010458373e-01 -6.958775809237519594e-01 2.782853815517130069e+00 4.932058984607570751e-01 -1.345188050553176140e+00 0.000000000000000000e+00 0.000000000000000000e+00 0.000000000000000000e+00
1.000000000000000021e-02 3.491198371386237675e-01 -8.194899838508381551e-01 2.534674155765578862e-01 -2.292700733869260432e+00 -7.074433986027453547e-02 -4.626804791608887801e-02 0.000000000000000000e+00 0.000000000000000000e+00 0.000000000000000000e+00
1.000000000000000021e-02 8.276949754545434024e-01 -7.993325196287642820e-01 9.417773766405650449e-01 -5.130668121292245587e-01 8.016749877816681247e-01 6.161101877793814241e-01 0.000000000000000000e+00 0.000000000000000000e+00 0.000000000000000000e+00
1.000000000000000021e-02 4.583683004998039823e-01 -1.577713639691506353e+00 -2.745089326682148001e-01 -1.700744664209893786e+00 -2.783853899171722657e-01 4.847933263398427894e-01 0.000000000000000000e+00 0.000000000000000000e+00 0.000000000000000000e+00
1.000000000000000021e-02 8.912140564506647322e-02 -5.971323715559099243e-01 -4.962647941107755645e-01 -3.744914146998281484e-02 -6.367199651139911210e-02 1.493850604780980751e+00 0.000000000000000000e+00 0.000000000000000000e+00 0.000000000000000000e+00
1.000000000000000021e-02 -2.365391945411671415e+00 2.002999268499249530e-01 -4.113566120264163795e-01 8.963863301088077495e-01 1.537829265603888995e+00 -9.301641868985737194e-01 0.000000000000000000e+00 0.000000000000000000e+00 0.000000000000000000e+00
1.000000000000000021e-02 2.383153959201949890e-01 9.001439317666735107e-01 3.094832017578824299e-02 1.475190585577506042e+00 8.395090529656168421e-02 -1.494169887054021428e+00 0.000000000000000000e+00 0.000000000000000000e+00 0.000000000000000000e+00
1.000000000000000021e-02 2.318062145538562699e-02 1.925096218624705868e-01 -3.136629178913728777e-02 4.023170601990146422e-01 -6.083132837120577285e-01 1.029142823478453317e-01 0.000000000000000000e+00 0.000000000000000000e+00 0.000000000000000000e+00
1.000000000000000021e-02 -8.347696679825508115e-01 -5.183231106170654856e-01 2.211718435626577328e-01 -8.109332165916892654e-01 -1.985939775765227233e-01 -1.948331608169727724e-01 0.000000000000000000e+00 0.000000000000000000e+00 0.000000000000000000e+00
1.000000000000000021e-02 4.678567291948701468e-02 -5.018732317228724593e-01 -6.197994900496058834e-01 -1.423256971586308373e+00 -1.504537495484423282e+00 3.207450330743263217e-02 0.000000000000000000e+00 0.000000000000000000e+00 0.000000000000000000e+00
1.000000000000000021e-02 -1.315110045032553243e+00 -2.076190024561294645e-02 1.031902854916310286e+00 1.133781527396581001e+00 4.573697182732727740e-01 1.177953595674657850e+00 0.000000000000000000e+00 0.000000000000000000e+00 0.000000000000000000e+00
1.000000000000000021e-02 4.670322312679178189e-01 -1.809377118517783711e-01 -2.840609296535234751e-04 -2.455517042560826368e-01 6.136199428074291529e-01 -2.064343071347364056e+00 0.000000000000000000e+00 0.000000000000000000e+00 0.000000000000000000e+00
1.000000000000000021e-02 1.553671305249832102e+00 -7.177367915898996698e-02 6.369316241763188780e-01 -2.246430049358618231e+00 3.661565331256541045e-01 1.218417438004712139e+00 0.000000000000000000e+00 0.000000000000000000e+00 0.000000000000000000e+00
1.000000000000000021e-02 -2.210205374229401443e+00 -6.716836474682936764e-01 -1.272025596353564492e+00 1.257140221539554181e+00 -5.225595330697390128e-01 -5.799102956839615741e-01 0.000000000000000000e+00 0.000000000000000000e+00 0.000000000000000000e+00
1.000000000000000021e-02 -5.563295936062999658e-01 6.314620104120381994e-01 -1.036224191599996347e+00 1.235337344670234483e+00 1.542530681861706277e-01 -7.391094308712242711e-01 0.000000000000000000e+00 0.000000000000000000e+00 0.000000000000000000e+00
1.000000000000000021e-02 -6.322451682636001102e-01 -1.090295921276320801e-01 1.324651063569570519e+00 1.719786283233667668e+00 -1.488024580020591570e+00 -1.849779170890340385e+00 0.000000000000000000e+00 0.000000000000000000e+00 0.000000000000000000e+00
1.000000000000000021e-02 4.315171062295216076e-01 -2.151709435163083661e+00 2.783866834125261480e-01 7.712128327113472182e-01 -5.792759578893432737e-01 9.129946345314412515e-01 0.000000000000000000e+00 0.000000000000000000e+00 0.000000000000000000e+00
1.000000000000000021e-02 9.091933364793276517e-01 -6.590173273298438605e-01 -2.135072990446267721e-02 1.058164545337288986e+00 2.759032669632554557e-01 2.438571770320182297e-01 0.000000000000000000e+00 0.000000000000000000e+00 0.000000000000000000e+00
1.000000000000000021e-02 3.087265580194266668e-01 -1.347706700832459026e+00 3.691825983461298755e-01 4.598185664917582849e-01 6.269616339216782519e-01 -8.132652380991124419e-01 0.000000000000000000e+00 0.000000000000000000e+00 0.000000000000000000e+00
1.000000000000000021e-02 -7.634100278857440802e-01 2.653857546885057817e-02 4.263506466387232963e-01 4.876267566427409106e-01 -3.290709109101687679e-01 -5.281075950608662417e-01 0.000000000000000000e+00 0.000000000000000000e+00 0.000000000000000000e+00
1.000000000000000021e-02 1.453967460758938568e+00 2.962653783554163867e-01 -6.122776534429710260e-01 -2.187311885439724879e+00 1.391351526132219130e+00 -8.777781194681409938e-01 0.000000000000000000e+00 0.000000000000000000e+00 0.000000000000000000e+00
1.000000000000000021e-02 -9.791640637167687844e-01 1.796505670472129834e+00 6.045575889488036259e-01 -1.583023318970209425e+00 1.756672978207860281e+00 2.219248774025184001e-01 0.000000000000000000e+00 0.000000000000000000e+00 0.000000000000000000e+00
1.000000000000000021e-02 6.857318809816900229e-01 1.098651007018710990e+00 -1.336801858533090304e+00 -5.016558394924567343e-01 1.893518574010253364e-01 -8.866384327857779191e-01 0.000000000000000000e+00 0.000000000000000000e+00 0.000000000000000000e+00
1.000000000000000021e-02 2.558147007276705409e-01 1.217488772158408894e+00 -2.908542948844478060e-01 -1.295102929332341057e+00 -5.581842933646286031e-01 2.443436069908705988e-01 0.000000000000000000e+00 0.000000000000000000e+00 0.000000000000000000e+00
1.000000000000000021e-02 -8.129880425965726465e-01 9.056687693724231325e-01 6.748749413429228072e-01 -5.390273969499612683e-01 6.393251454873577488e-01 -3.195923026382652132e-01 0.000000000000000000e+00 0.000000000000000000e+00 0.000000000000000000e+00
1.000000000000000021e-02 -1.845110212029473340e+00 -6.050027394315229956e-02 -2.661755504503410807e-01 -2.301691685905890239e+00 8.197376698100176107e-01 -1.733501580126057373e+00 0.000000000000000000e+00 0.000000000000000000e+00 0.000000000000000000e+00
1.000000000000000021e-02 9.223276993524759382e-02 5.777578994415746294e-01 7.590556131193362255e-01 1.903295751810470282e+00 1.272011931866454670e+00 3.984123332450252297e-01 0.000000000000000000e+00 0.000000000000000000e+00 0.000000000000000000e+00
1.000000000000000021e-02 -8.806165871178215365e-01 3.935890448189646729e-01 2.105058388528665836e-01 -1.043613552583828818e+00 -1.076192331558272652e+00 -9.434170586522171442e-01 0.000000000000000000e+00 0.000000000000000000e+00 0.000000000000000000e+00
1.000000000000000021e-02 -1.223790026516575535e+00 -1.158496461540530209e+00 1.243008580882720260e+00 -1.069225837880125374e+00 8.761229647748191018e-01 6.040635815326679536e-02 0.000000000000000000e+00 0.000000000000000000e+00 0.000000000000000000e+00
1.000000000000000021e-02 1.730325199689769722e+00 1.412091632529892671e+00 -1.576589008272382408e-01 -6.076089358599912060e-01 -6.551838044199229660e-01 -8.917694266075515408e-02 0.000000000000000000e+00 0.000000000000000000e+00 0.000000000000000000e+00
1.000000000000000021e-02 9.404126751537154050e-01 -2.091363738157181462e+00 4.960070442026469073e-01 -1.013599377136120472e+00 -4.341590717763890162e-01 1.436164345799120223e+00 0.000000000000000000e+00 0.000000000000000000e+00 0.000000000000000000e+00
1.000000000000000021e-02 -4.863207435825644964e-01 -8.851901535040190838e-01 3.920864892151957326e-01 4.548278912041572863e-01 -8.340644894270842213e-01 -2.232763562333825558e+00 0.000000000000000000e+00 0.000000000000000000e+00 0.000000000000000000e+00
1.000000000000000021e-02 -1.057796856090176707e+00 -1.035240881244576361e+00 -2.814073233973862997e+00 -2.438024865669007557e+00 3.571341084504743857e-01 -1.208303449453128481e-01 0.000000000000000000e+00 0.000000000000000000e+00 0.000000000000000000e+00
1.000000000000000021e-02 -1.030064471955179695e+00 5.568550749871484934e-02 -6.102884779314684538e-01 2.903980144238708094e-01 -4.899667432457958105e-01 -2.173790930818924882e-01 0.000000000000000000e+00 0.000000000000000000e+00 0.000000000000000000e+00
1.000000000000000021e-02 -1.678373088796623058e+00 7.878569589743074086e-01 1.278916574677236184e+00 9.421967598320868387e-01 5.107235323900465307e-01 1.985349446540488838e+00 0.000000000000000000e+00 0.000000000000000000e+00 0.000000000000000000e+00
1.000000000000000021e-02 -1.421856102565789204e+00 3.317840078122810676e-01 7.418606122404185210e-02 9.308660363058181009e-01 -5.521632132728140213e-02 6.960356950056488801e-01 0.000000000000000000e+00 0.000000000000000000e+00 0.000000000000000000e+00
1.000000000000000021e-02 -2.242953145538019832e+00 -5.634927027447864112e-02 -6.970529116091581656e-01 -2.492751550073458944e+00 -4.443113895742198949e-01 6.866784209229954694e-01 0.000000000000000000e+00 0.000000000000000000e+00 0.000000000000000000e+00
1.000000000000000021e-02 -1.396825244659835930e+00 -1.409730155591696787e+00 1.480408126476930653e+00 -1.328744817047947002e+00 -9.137583763546061610e-02 -1.066955875161552436e+00 0.000000000000000000e+00 0.000000000000000000e+00 0.000000000000000000e+00
1.000000000000000021e-02 1.331218615430668883e+00 5.239766024736296490e-01 5.964374428031519182e-01 1.405977679372603317e+00 3.164239533560150863e-01 5.580052451179711159e-01 0.000000000000000000e+00 0.000000000000000000e+00 0.000000000000000000e+00
1.000000000000000021e-02 1.443681488056539397e+00 -9.774583700327432734e-01 1.376067020390458362e+00 -8.441279161678784115e-01 -4.167080282836470584e-01 5.262225361714824023e-01 0.000000000000000000e+00 0.000000000000000000e+00 0.000000000000000000e+00
1.000000000000000021e-02 1.674287823363055094e-01 1.174303948244775686e+00 -1.134977370933848650e+00 -6.634051663676543420e-01 4.864617284142628284e-01 -9.861054413758862935e-01 0.000000000000000000e+00 0.000000000000000000e+00 0.000000000000000000e+00
1.000000000000000021e-02 4.989986244889318412e-01 -1.059300078808739887e+00 -3.631916634122607790e-01 -1.825685018551224337e+00 1.537829754758213596e+00 8.083610524136866093e-01 0.000000000000000000e+00 0.000000000000000000e+00 0.000000000000000000e+00
1.000000000000000021e-02 8.470894952669153488e-01 -1.125433945128101687e+00 -3.766751943048445295e-01 -4.834094588792293146e-01 1.089648923667302594e+00 9.974471198491885460e-01 0.000000000000000000e+00 0.000000000000000000e+00 0.000000000000000000e+00
1.000000000000000021e-02 -1.891027371684766534e+00 8.372743024750410878e-01 -3.570273451146305232e-02 3.606963363524966493e-01 -2.379732647274256652e-01 -9.443529137703803311e-01 0.000000000000000000e+00 0.000000000000000000e+00 0.000000000000000000e+00
1.000000000000000021e-02 -3.899391678593664423e-01 3.917941983323596222e-01 -4.155701789135478608e-01 3.699225719932364154e-01 -1.166370700330728871e+00 -2.133042363522097418e+00 0.000000000000000000e+00 0.000000000000000000e+00 0.000000000000000000e+00
1.000000000000000021e-02 -5.776498894206641976e-01 1.505147418547400084e+00 -3.320277081625073734e-01 -1.196319759613459821e+00 -1.363303627562135745e-01 1.462380668695683894e-01 0.000000000000000000e+00 0.000000000000000000e+00 0.000000000000000000e+00
1.000000000000000021e-02 -1.114247570085959149e-01 1.457154822616330447e+00 -1.167437060208890820e+00 -4.247976338620501058e-01 7.016783700673244750e-01 3.263378175163929029e-01 0.000000000000000000e+00 0.000000000000000000e+00 0.000000000000000000e+00
1.000000000000000021e-02 -1.795954407391288088e-01 -1.501655134441861605e-01 -1.092286444628886688e+00 -9.749966156112944288e-03 2.115914657647768871e-01 -2.806323666537494432e+00 0.000000000000000000e+00 0.000000000000000000e+00 0.000000000000000000e+00
1.000000000000000021e-02 -4.457404195548981818e-01 -1.528870113536650033e+00 -5.579220906660801171e-01 -1.249314777945492505e+00 -1.780504389082699923e-01 -1.548928796126385565e+00 0.000000000000000000e+00 0.000000000000000000e+00 0.000000000000000000e+00
1.000000000000000021e-02 4.076514546626869295e-01 1.261371052777953583e+00 1.884313743621759962e-01 -6.988594586212902859e-01 1.167313767517477618e+00 2.847273900499651123e-01 0.000000000000000000e+00 0.000000000000000000e+00 0.000000000000000000e+00
1.000000000000000021e-02 1.656184485685970320e-01 -8.961252157174391941e-01 6.148295642654517668e-01 -2.730082108611426861e-01 3.093726266810394865e-01 -2.645119170367654649e-01 0.000000000000000000e+00 0.000000000000000000e+00 0.000000000000000000e+00
1.000000000000000021e-02 -6.467234070273580882e-01 -6.073491653142351065e-01 -9.104346501669999814e-01 -2.865412116163130185e-01 -8.200212692749564436e-01 -1.384992287871874839e-01 0.000000000000000000e+00 0.000000000000000000e+00 0.000000000000000000e+00
1.000000000000000021e-02 -1.354891182659403004e+00 -1.075987317299976986e+00 -1.493530411623798848e+00 5.994046035221277657e-01 -1.788294105872719975e+00 -1.918506820947444014e-01 0.000000000000000000e+00 0.000000000000000000e+00 0.000000000000000000e+00
1.000000000000000021e-02 4.873019714594006846e-01 -1.983318516165687218e+00 -1.051922610243119394e+00 7.666641668901484907e-01 -1.523314435673471801e-01 -5.714086476784804303e-01 0.000000000000000000e+00 0.000000000000000000e+00 0.000000000000000000e+00
1.000000000000000021e-02 -1.121156317982114681e+00 2.237761117106988884e+00 1.167098528643874422e+00 -1.898616380430289574e+00 1.318441185225020851e+00 -7.559393691598588205e-01 0.000000000000000000e+00 0.000000000000000000e+00 0.000000000000000000e+00
1.000000000000000021e-02 6.400419363964802155e-01 1.922409078408490846e+00 9.332461466028021402e-01 2.938021852591312655e-01 6.097795779020463713e-02 1.186772882722117589e-01 0.000000000000000000e+00 0.000000000000000000e+00 0.000000000000000000e+00
1.000000000000000021e-02 -1.037589969800519318e+00 1.057858512065662782e-01 2.064407771278213566e-01 -2.680262505975316012e-01 -2.279940389505881626e+00 1.618660984208938544e-02 0.000000000000000000e+00 0.000000000000000000e+00 0.000000000000000000e+00
1.000000000000000021e-02 2.176420429429487269e-01 3.112823703122852281e-01 2.135746906217689922e+00 -2.591228341668334600e-01 -1.850478231731199630e+00 2.590421288561313151e-01 0.000000000000000000e+00 0.000000000000000000e+00 0.000000000000000000e+00
1.000000000000000021e-02 -1.720768445095455235e+00 -8.510462420970159592e-01 3.124273507033609731e-01 -8.978724628254586282e-01 3.765964139011117318e-02 7.175355245470506349e-02 0.000000000000000000e+00 0.000000000000000000e+00 0.000000000000000000e+00
1.000000000000000021e-02 5.667528545376833149e-01 5.637646696626310572e-01 9.519510078303380363e-01 2.043631387095425911e-01 2.252073910753535024e+00 -7.946212815071218571e-02 0.000000000000000000e+00 0.000000000000000000e+00 0.000000000000000000e+00
1.000000000000000021e-02 -1.838066654893114882e-01 7.109468705292575352e-01 -1.479278323295404762e+00 9.918562982978550435e-01 -3.148489683739846279e-01 9.705604284495873424e-01 0.000000000000000000e+00 0.000000000000000000e+00 0.000000000000000000e+00
1.000000000000000021e-02 -1.588493052590272125e-01 -1.327587358937975859e+00 1.356876737731933735e+00 -6.780464051822393534e-01 -2.453789069323097038e+00 4.126412673221730443e-01 0.000000000000000000e+00 0.000000000000000000e+00 0.000000000000000000e+00
1.000000000000000021e-02 -1.754930330717074716e+00 -1.097574472099573928e+00 -5.260100386620666368e-01 -1.807478841999931307e-01 1.645771262863850559e+00 7.293773079494557665e-01 0.000000000000000000e+00 0.000000000000000000e+00 0.000000000000000000e+00
1.000000000000000021e-02 -1.386425367596713365e-01 6.087829053137764485e-02 -3.744169514726254366e-01 -8.216648856910550025e-01 -3.759933750173610201e-01 4.496787158968187925e-01 0.000000000000000000e+00 0.000000000000000000e+00 0.000000000000000000e+00
1.000000000000000021e-02 1.155521220133019389e+00 5.422503913196825565e-01 1.486962408334026930e+00 -1.467984099231594897e+00 -3.786037757141259563e-01 7.160784128142354543e-01 0.000000000000000000e+00 0.000000000000000000e+00 0.000000000000000000e+00
1.000000000000000021e-02 2.486107721587484942e-01 -9.800423860682347388e-02 -8.086117777192176614e-01 7.446544801949506187e-01 -9.026498761177774721e-01 -1.125770004286028581e+00 0.000000000000000000e+00 0.000000000000000000e+00 0.000000000000000000e+00
1.000000000000000021e-02 1.204112862985840193e+00 -7.599882128833964634e-01 1.097438186607750055e+00 1.309249985787764192e+00 3.630088842214826417e-01 1.741818857776695539e+00 0.000000000000000000e+00 0.000000000000000000e+00 0.000000000000000000e+00
1.000000000000000021e-02 3.055164190293780946e-01 -9.420713526919223257e-01 6.662115626193020335e-01 7.901240289380109250e-01 -3.244645656288288604e-01 -4.645595975290925939e-01 0.000000000000000000e+00 0.000000000000000000e+00 0.000000000000000000e+00
1.000000000000000021e-02 -1.517801179892869001e+00 -1.813604112048761374e+00 -7.925637940893160982e-01 -3.072383143761732160e-01 3.267705447819262976e-01 8.560934351706221968e-01 0.000000000000000000e+00 0.000000000000000000e+00 0.000000000000000000e+00
1.000000000000000021e-02 1.278501364980071164e+00 -1.777230773407362935e-02 -1.710580521685012567e-01 3.882113590172537876e-01 -9.592162350493305123e-01 -9.892529187295989734e-01 0.000000000000000000e+00 0.000000000000000000e+00 0.000000000000000000e+00
1.000000000000000021e-02 1.286619837314799009e+00 4.346107980007309080e-02 -7.881528839200988568e-01 -1.090850094085206834e+00 -1.343045852854867439e+00 -8.869706020413532510e-01 0.000000000000000000e+00 0.000000000000000000e+00 0.000000000000000000e+00
1.000000000000000021e-02 1.411503111139882805e+00 7.299723399113107192e-01 6.181994489046905850e-01 5.459606407386332488e-02 7.793894231322475719e-01 -6.085557193573587487e-01 0.000000000000000000e+00 0.000000000000000000e+00 0.000000000000000000e+00
1.000000000000000021e-02 -2.742808006547490240e+00 -2.177326612852035215e+00 2.509140979607811239e-01 -2.047655323548139839e-01 -8.370881270596955415e-02 1.604862117846660441e+00 0.000000000000000000e+00 0.000000000000000000e+00 0.000000000000000000e+00
1.000000000000000021e-02 -1.282118635464203571e+00 -2.182155184705949769e-01 -1.791280901639070722e+00 -4.650529920006632456e-01 -1.520881253613725947e+00 -6.817565171246429967e-02 0.000000000000000000e+00 0.000000000000000000e+00 0.000000000000000000e+00
1.000000000000000021e-02 2.950743823620352591e-01 -1.587328542164652800e+00 -8.094194172651891783e-02 2.402177506062999623e-01 1.642344959900912560e+00 2.354578382032129991e+00 0.000000000000000000e+00 0.000000000000000000e+00 0.000000000000000000e+00
1.000000000000000021e-02 -5.065804201802565077e-02 -4.893287321611518581e-01 -1.941667044104411766e-01 -1.564109667275611848e+00 -1.164014206265240770e+00 1.974014934767765184e-01 0.000000000000000000e+00 0.000000000000000000e+00 0.000000000000000000e+00
1.000000000000000021e-02 7.865160411462351897e-01 1.373191048372808809e-01 -5.269933565815766441e-01 3.250778543789116237e-01 2.964761818604783050e-01 8.498904282896875273e-01 0.000000000000000000e+00 0.000000000000000000e+00 0.000000000000000000e+00
1.000000000000000021e-02 -7.466161099748391816e-01 -8.544505083561896308e-01 -1.441807221987024379e+00 -5.638697878739105107e-01 -1.326718700486560598e+00 4.529933877985533597e-01 0.000000000000000000e+00 0.000000000000000000e+00 0.000000000000000000e+00
1.000000000000000021e-02 2.273129167130420569e+00 3.426726010176426862e-01 1.511502022778475007e+00 -1.267094490808699847e+00 1.298335848742093290e+00 -3.812398824087169236e-01 0.000000000000000000e+00 0.000000000000000000e+00 0.000000000000000000e+00
1.000000000000000021e-02 2.302441546109549986e+00 5.147673711884370729e-01 -1.253575334539233532e+00 8.768555105031174968e-01 2.395144997156521516e+00 -2.632083733812521364e-01 0.000000000000000000e+00 0.000000000000000000e+00 0.000000000000000000e+00
1.000000000000000021e-02 1.215540828932219597e+00 8.306595458818342159e-01 -6.814816247235637725e-01 1.261896561732369637e-01 -7.028562624622481936e-01 7.328281795264440790e-01 0.000000000000000000e+00 0.000000000000000000e+00 0.000000000000000000e+00
1.000000000000000021e-02 -4.370213796509904713e-01 -9.816308507081160650e-01 5.049931770050435087e-02 1.969157700518000986e+00 -8.691322133906360659e-01 8.181117936822189796e-01 0.000000000000000000e+00 0.000000000000000000e+00 0.000000000000000000e+00
1.000000000000000021e-02 -6.559451530989146573e-01 1.251452870944333995e+00 -6.814601204096939480e-01 8.456869356072233002e-01 7.229090184384390216e-01 7.471666460293699963e-01 0.000000000000000000e+00 0.000000000000000000e+00 0.000000000000000000e+00
1.000000000000000021e-02 1.079078837151664638e-01 9.962632998887890889e-02 7.403436929560233137e-01 2.470329866688529830e+00 5.904055864298198841e-01 -2.779737105838129274e-01 0.000000000000000000e+00 0.000000000000000000e+00 0.000000000000000000e+00
1.000000000000000021e-02 -7.973508288019691415e-02 -1.986813417059859199e-01 1.704792409519733987e+00 1.269961299856991577e+00 -2.582439622157537973e-01 6.248354293302912366e-01 0.000000000000000000e+00 0.000000000000000000e+00 0.000000000000000000e+00
1.000000000000000021e-02 1.909237422627739211e-01 -3.675609231120396947e-03 -1.970470054775454449e-01 -5.144190403657932231e-01 -4.516491145782691730e-01 9.839544119913787856e-01 0.000000000000000000e+00 0.000000000000000000e+00 0.000000000000000000e+00
1.000000000000000021e-02 -1.541428607637147064e+00 -1.520746602639829526e+00 1.905642540537459517e+00 -1.228674310441760120e+00 1.874099089313400857e+00 1.965390327679110150e-01 0.000000000000000000e+00 0.000000000000000000e+00 0.000000000000000000e+00
1.000000000000000021e-02 -3.256599265257053566e-01 -1.392475254189441403e-01 2.250291003972140214e-01 -4.773570810016670163e-01 -2.671091642177287895e-01 -1.043266155022687158e+00 0.000000000000000000e+00 0.000000000000000000e+00 0.000000000000000000e+00
1.000000000000000021e-02 -1.371970445804533423e+00 4.874973344912535422e-01 -2.238031445869950176e+00 5.878086511381954704e-01 5.925233883904243992e-01 9.102045097955762110e-01 0.000000000000000000e+00 0.000000000000000000e+00 0.000000000000000000e+00
1.000000000000000021e-02 6.983981629933538882e-01 -1.612930203975140975e+00 1.589680381998633152e+00 9.478934567758866558e-01 3.279775522988647163e-01 7.354625532963585677e-01 0.000000000000000000e+00 0.000000000000000000e+00 0.000000000000000000e+00
1.000000000000000021e-02 -1.997014813863059235e+00 9.324356054950087014e-01 -1.115946693958545177e+00 1.077179808303055708e+00 -4.284902938101006198e-01 3.274545825798343412e-01 0.000000000000000000e+00 0.000000000000000000e+00 0.000000000000000000e+00
1.000000000000000021e-02 7.923463719850936116e-01 4.824604237418769204e-01 1.081736577367126279e-01 -1.520894443040476052e+00 2.337517794449301134e-01 -8.991486012948767259e-01 0.000000000000000000e+00 0.000000000000000000e+00 0.000000000000000000e+00
1.000000000000000021e-02 1.050111926224167602e+00 -8.394417852066254904e-01 -6.116512101139510299e-02 5.274253279926115479e-01 -1.217776034719499356e-01 -1.877364545664495621e+00 0.000000000000000000e+00 0.000000000000000000e+00 0.000000000000000000e+00
1.000000000000000021e-02 9.823432833700862510e-01 -2.413644555397271851e-01 -1.369797359296088257e-01 -1.830681844584681972e+00 1.201807702159772617e+00 3.713563699376961069e-01 0.000000000000000000e+00 0.000000000000000000e+00 0.000000000000000000e+00
1.000000000000000021e-02 4.862746505395512675e-01 -4.271568825437663253e-01 -4.957026101202255952e-01 -1.979920535734995379e+00 8.954696808696980259e-01 -1.368481130392438516e-01 0.000000000000000000e+00 0.000000000000000000e+00 0.000000000000000000e+00
1.000000000000000021e-02 -8.144635110627320707e-01 8.238899118148660383e-01 -2.985773400704471170e-01 1.092860597488876095e+00 1.162532709882425408e+00 -4.255033209178761267e-01 0.000000000000000000e+00 0.000000000000000000e+00 0.000000000000000000e+00
1.000000000000000021e-02 1.249285488717540860e+00 4.183551101315359233e-01 9.062975214252712020e-01 -1.093603873384348502e+00 5.254372274046285041e-01 3.237576662597427823e-01 0.000000000000000000e+00 0.000000000000000000e+00 0.000000000000000000e+00
1.000000000000000021e-02 -3.513990020256700930e-01 2.586307605071843430e+00 7.355755180184860853e-01 3.769286960427891131e-01 6.538002801015376786e-01 -1.284418020701338481e+00 0.000000000000000000e+00 0.000000000000000000e+00 0.000000000000000000e+00
1.000000000000000021e-02 5.317149078134684181e-01 -1.251341955684175611e+00 5.055776812713290713e-01 -1.165364933416860094e+00 -5.748958907242210925e-01 -3.444074620359942329e-02 0.000000000000000000e+00 0.000000000000000000e+00 0.000000000000000000e+00
1.000000000000000021e-02 1.086853943584293658e+00 -1.365140936911560521e-01 1.945387185183116374e+00 -4.359364758793566469e-02 -1.751480870389290900e-01 -1.292414454919759148e-01 0.000000000000000000e+00 0.000000000000000000e+00 0.000000000000000000e+00
1.000000000000000021e-02 9.337222495293318048e-01 -9.646767176019821477e-01 5.920351268669727940e-01 -8.127486836237006462e-03 -1.397921925308830485e-02 2.063544274942370749e-01 0.000000000000000000e+00 0.000000000000000000e+00 0.000000000000000000e+00
1.000000000000000021e-02 6.379896828521636198e-01 3.118766503893489750e-01 6.292024114484402464e-01 -2.365109922960130007e+00 1.364475247377747447e-01 -7.573909617139568118e-01 0.000000000000000000e+00 0.000000000000000000e+00 0.000000000000000000e+00
1.000000000000000021e-02 1.142522142258004525e+00 -4.109907076228919709e-01 -1.891575792502357134e-01 -7.964598785105408973e-02 3.590142641508857202e-01 -5.400675457212216202e-01 0.000000000000000000e+00 0.000000000000000000e+00 0.000000000000000000e+00
1.000000000000000021e-02 -5.973455927388062747e-01 5.454358996251126301e-01 -3.253299434898301173e-02 4.421880921561157085e-01 -2.861992731897202158e-01 8.858849495631157533e-02 0.000000000000000000e+00 0.000000000000000000e+00 0.000000000000000000e+00
1.000000000000000021e-02 9.686901643630893011e-01 1.556872939643308751e+00 4.169300016844635359e-01 -4.615226695625689879e-01 -2.398619377481450710e-01 -2.691821440713633162e-01 0.000000000000000000e+00 0.000000000000000000e+00 0.000000000000000000e+00
1.000000000000000021e-02 -5.498875194473914485e-01 -1.020276693068638441e+00 8.692791528205380258e-01 7.518856474004848023e-01 -4.114591807312498739e-01 4.039438328096899844e-01 0.000000000000000000e+00 0.000000000000000000e+00 0.000000000000000000e+00
1.000000000000000021e-02 2.866206359141529880e-01 1.945172099279470546e+00 -6.816970028580219276e-01 -6.226214418854092436e-01 -6.306829637641498953e-01 5.313678983553231649e-01 0.000000000000000000e+00 0.000000000000000000e+00 0.000000000000000000e+00
1.000000000000000021e-02 -3.166963007982100398e-01 -4.248609056653435134e-01 -3.268261837023814786e-01 2.123015215077293405e+00 -1.007943168520041149e-01 -1.281731521488977732e+00 0.000000000000000000e+00 0.000000000000000000e+00 0.000000000000000000e+00
1.000000000000000021e-02 -8.502645059423267204e-01 4.110757289849447105e-01 -5.942527538614738036e-01 6.095280020820870170e-01 -6.028919142079813831e-01 -1.836578973286335792e-01 0.000000000000000000e+00 0.000000000000000000e+00 0.000000000000000000e+00
1.000000000000000021e-02 -1.737389836783816088e+00 4.579875515640157158e-01 7.391014577695858012e-01 1.085185025199747910e+00 -1.041978265795051373e+00 9.417929564600616699e-01 0.000000000000000000e+00 0.000000000000000000e+00 0.000000000000000000e+00
1.000000000000000021e-02 -1.123736730430713315e+00 -7.687687535286588103e-01 -1.986137871628111951e-01 -9.090099391541316409e-01 -1.516856281147315855e+00 -9.594659746716344140e-01 0.000000000000000000e+00 0.000000000000000000e+00 0.000000000000000000e+00
1.000000000000000021e-02 4.557024542397765110e-01 -2.783285359147475990e-01 -3.287256381813190576e-01 -2.386579497204490696e-01 -6.542305378581768638e-01 7.470994324729711700e-01 0.000000000000000000e+00 0.000000000000000000e+00 0.000000000000000000e+00
1.000000000000000021e-02 7.607360847987961749e-01 -1.472264669506085033e+00 -8.089485478162601328e-01 1.394951481826552486e+00 7.806504244969478812e-01 -9.390893786761410622e-01 0.000000000000000000e+00 0.000000000000000000e+00 0.000000000000000000e+00
1.000000000000000021e-02 9.873343452303805501e-01 6.452369097974574030e-01 1.485771824163612809e-01 -4.774547158885801834e-01 3.760808075674020312e-01 -1.323779125838249415e+00 0.000000000000000000e+00 0.000000000000000000e+00 0.000000000000000000e+00
1.000000000000000021e-02 3.168877102258779721e-01 5.709315508169431064e-02 -1.782038649482254433e+00 -1.835587033984423938e-02 -5.825085217579067248e-02 -3.052298695584066968e-01 0.000000000000000000e+00 0.000000000000000000e+00 0.000000000000000000e+00
1.000000000000000021e-02 1.685096788929908440e+00 8.856296479150297385e-01 2.575535365979981783e-01 8.915441667276173821e-01 6.156071709262133096e-01 1.362487102017023721e+00 0.000000000000000000e+00 0.000000000000000000e+00 0.000000000000000000e+00
1.000000000000000021e-02 -7.862750581771640324e-01 8.518221603378266504e-01 4.022644236950361218e+00 -5.970385665666424480e-01 -8.248145411577693098e-01 1.856313588500560385e+00 0.000000000000000000e+00 0.000000000000000000e+00 0.000000000000000000e+00
1.000000000000000021e-02 -4.825035322269580762e-01 5.758555109780270076e-01 -8.216700700178357630e-01 2.550581571360715505e-01 6.598114140803460481e-01 -3.862156814091421281e-03 0.000000000000000000e+00 0.000000000000000000e+00 0.000000000000000000e+00
1.000000000000000021e-02 8.765580482590924483e-01 -1.474397952161700553e+00 1.330583071002734707e-01 -1.873275886264319734e+00 -5.455518042292597514e-01 -9.460549268470314077e-02 0.000000000000000000e+00 0.000000000000000000e+00 0.000000000000000000e+00
1.000000000000000021e-02 9.183696802490254329e-02 -6.277206008455435970e-01 -1.180029137016631591e+00 -3.814921570198853140e-01 -1.779208594110502473e+00 -1.742306608556760228e+00 0.000000000000000000e+00 0.000000000000000000e+00 0.000000000000000000e+00
1.000000000000000021e-02 -8.868486532858137483e-01 -1.431307911758400664e+00 -1.513340556960551586e+00 4.952659476131692773e-01 -7.120795783057144446e-01 -3.661741223289692870e-01 0.000000000000000000e+00 0.000000000000000000e+00 0.000000000000000000e+00
1.000000000000000021e-02 -1.037918397537110626e-01 -9.419720221970343532e-01 -3.185733760232518086e-01 -4.529725068358565754e-02 -1.844259229975295566e+00 4.406106452401666873e-01 0.000000000000000000e+00 0.000000000000000000e+00 0.000000000000000000e+00
1.000000000000000021e-02 -5.346197686413165506e-01 1.442332891035474907e-01 -1.763394554078276277e+00 9.192586451323033758e-01 -1.423139455482302917e+00 -1.280686061845050933e-02 0.000000000000000000e+00 0.000000000000000000e+00 0.000000000000000000e+00
1.000000000000000021e-02 1.698500436841352768e+00 -1.214269662789515536e+00 -6.921604100654396019e-01 -2.668097194547312534e-01 3.961930149537631896e-01 -1.179705487109410811e+00 0.000000000000000000e+00 0.000000000000000000e+00 0.000000000000000000e+00
1.000000000000000021e-02 -4.191705292324549026e-01 -1.060137526200784164e+00 -1.768404937349552286e+00 3.632331503552289065e-01 5.248497122047449670e-01 -9.383752536402419908e-01 0.000000000000000000e+00 0.000000000000000000e+00 0.000000000000000000e+00
1.000000000000000021e-02 1.690354099528009968e+00 -7.619348577127246225e-01 -1.678805306891619997e+00 9.185119853177607929e-01 1.458099695817137720e+00 -1.475569615234250564e+00 0.000000000000000000e+00 0.000000000000000000e+00 0.000000000000000000e+00
1.000000000000000021e-02 -5.644488234992751652e-01 -2.193147917769992183e+00 -1.064690882227008473e+00 -1.986376600386476066e-01 -2.708419709076141935e-01 -1.133399567423007959e-01 0.000000000000000000e+00 0.000000000000000000e+00 0.000000000000000000e+00
1.000000000000000021e-02 -7.866726115570186195e-01 2.516126980961125303e-01 -2.273868690581618002e-01 -6.897962708365267259e-01 1.187126497600707042e-01 1.880595273220558195e+00 0.000000000000000000e+00 0.000000000000000000e+00 0.000000000000000000e+00
1.000000000000000021e-02 9.699830029653836450e-01 1.396606404529873835e+00 5.412103828387996307e-01 4.063147118353790388e-01 -4.675106017829064320e-02 3.003277823692707127e-01 0.000000000000000000e+00 0.000000000000000000e+00 0.000000000000000000e+00
1.000000000000000021e-02 -8.309788759933862679e-01 -8.431208567548877930e-01 5.012919923765044583e-01 -2.818036607799975224e-01 7.608616850557334832e-01 -6.301522659848094454e-01 0.000000000000000000e+00 0.000000000000000000e+00 0.000000000000000000e+00
1.000000000000000021e-02 5.498772296074280058e-02 8.195607712595139871e-01 3.049327429619917429e-01 5.419254261254617955e-01 -6.791398777228627726e-01 -4.076530638159720499e-01 0.000000000000000000e+00 0.000000000000000000e+00 0.000000000000000000e+00
1.000000000000000021e-02 7.880364422689508652e-01 -1.133857993415406940e+00 -1.849776273008043370e+00 -7.719024412368937771e-01 5.459489852263033072e-01 9.384466743965063085e-01 0.000000000000000000e+00 0.000000000000000000e+00 0.000000000000000000e+00
1.000000000000000021e-02 2.098935404445094743e-01 2.296211857849632110e-01 8.300451445859988731e-01 1.068751631449955219e+00 -2.902633306541305691e-01 -1.814508209708441955e+00 0.000000000000000000e+00 0.000000000000000000e+00 0.000000000000000000e+00
1.000000000000000021e-02 1.809184956862832649e+00 -2.990600003939559159e-01 -1.259314556004558661e+00 -1.307883192230169689e+00 2.118004903892233948e+00 8.289503179844477376e-01 0.000000000000000000e+00 0.000000000000000000e+00 0.000000000000000000e+00
1.000000000000000021e-02 -5.269252733288032342e-01 -4.032737146912163118e-01 1.028634907842830515e+00 -1.644907851781829966e-01 -1.084793768135656311e+00 -6.368011810978716492e-01 0.000000000000000000e+00 0.000000000000000000e+00 0.000000000000000000e+00
1.000000000000000021e-02 -1.549068294497300657e+00 1.410626447809075978e+00 -1.458926163582338065e+00 -2.664986908500774909e-01 7.016620972785334587e-01 -1.967194814199646480e-01 0.000000000000000000e+00 0.000000000000000000e+00 0.000000000000000000e+00
1.000000000000000021e-02 4.671215338120153215e-01 -6.708193764340356635e-01 6.905166242279138222e-01 -4.438731557160260910e-01 -1.355228486583861525e+00 -1.188028666809330947e+00 0.000000000000000000e+00 0.000000000000000000e+00 0.000000000000000000e+00
1.000000000000000021e-02 3.265378184058098654e-01 3.519985825599613455e-02 -4.924631672815634742e-01 7.844718961553407421e-01 1.713966810511815986e+00 2.523247437290473405e-01 0.000000000000000000e+00 0.000000000000000000e+00 0.000000000000000000e+00
1.000000000000000021e-02 8.930424595250462394e-01 6.964182909401065436e-01 1.555283147477306560e-01 -7.994437223425540084e-01 -1.461316000534425008e-01 -1.315943659694067014e+00 0.000000000000000000e+00 0.000000000000000000e+00 0.000000000000000000e+00
1.000000000000000021e-02 -1.154372308318725032e-01 -3.914038089103119566e-02 2.005388262313253733e+00 1.314543975058926062e+00 -7.499385405586229680e-01 -6.896878957158862622e-02 0.000000000000000000e+00 0.000000000000000000e+00 0.000000000000000000e+00
1.000000000000000021e-02 2.823425812363705156e-01 -1.412675450675491717e+00 -8.751358146893143397e-01 2.220743299151223538e-01 7.814753249775223676e-01 -3.221115789262185003e-01 0.000000000000000000e+00 0.000000000000000000e+00 0.000000000000000000e+00
1.000000000000000021e-02 1.393516269032565591e-01 -2.970270273389580828e-01 -5.399947508613242020e-01 1.546785313711939169e-01 1.758571926609633074e-01 2.493067799747416213e+00 0.000000000000000000e+00 0.000000000000000000e+00 0.000000000000000000e+00
1.000000000000000021e-02 -3.372598057095908541e-01 -2.698534567816299190e-01 -2.260243585713346548e-02 -1.071072711087972751e+00 1.220301244321003592e-01 -1.075586287092859639e+00 0.000000000000000000e+00 0.000000000000000000e+00 0.000000000000000000e+00
1.000000000000000021e-02 -2.181869065895573889e-01 8.319498589073498485e-01 8.471611350125581863e-01 -8.274948593049462620e-01 -6.316095884063530619e-01 7.022324261402794476e-02 0.000000000000000000e+00 0.000000000000000000e+00 0.000000000000000000e+00
1.000000000000000021e-02 1.175560935178040500e-01 -4.508090033274055330e-01 1.195248211676728234e+00 -2.975095604814303463e-01 -4.333864662313526850e-01 -1.029159257689996887e-01 0.000000000000000000e+00 0.000000000000000000e+00 0.000000000000000000e+00
1.000000000000000021e-02 1.662184969874637375e+00 -5.773997347361169430e-01 -7.465188118788366189e-01 2.634970947929511809e+00 9.403585696724450216e-01 -7.097410411552190768e-02 0.000000000000000000e+00 0.000000000000000000e+00 0.000000000000000000e+00
1.000000000000000021e-02 -1.400413283128334241e+00 -1.432027653182468940e+00 -6.741378984084195336e-01 -4.418020995631262438e-02 -3.065095606092574920e-01 -6.090195897546893944e-01 0.000000000000000000e+00 0.000000000000000000e+00 0.000000000000000000e+00
1.000000000000000021e-02 -3.200689930986294618e-01 8.671600339974847582e-01 -9.324769615882841922e-01 -2.652749439456859815e+00 1.201223219819507637e+00 1.186085413128179278e+00 0.000000000000000000e+00 0.000000000000000000e+00 0.000000000000000000e+00
1.000000000000000021e-02 2.643038334953679014e-01 5.281131835928762341e-02 1.132099474750107415e+00 -9.280449336735863142e-02 2.597254921527581972e-01 -9.894716719622729251e-01 0.000000000000000000e+00 0.000000000000000000e+00 0.000000000000000000e+00
1.000000000000000021e-02 2.546622844580205047e+00 -1.953034842339058108e-01 -2.303450162568629001e+00 1.283028352200989763e+00 -1.795798928046957454e-01 7.414846337895480977e-01 0.000000000000000000e+00 0.000000000000000000e+00 0.000000000000000000e+00
1.000000000000000021e-02 -6.614185306772807360e-01 -3.582931185985376854e-01 5.027278287478903485e-01 -3.864914112890434073e-01 -2.647363250050377426e-01 -1.246038111753542177e+00 0.000000000000000000e+00 0.000000000000000000e+00 0.000000000000000000e+00
1.000000000000000021e-02 1.568631684873487586e+00 7.472316179468136976e-01 -6.880148403837950122e-01 1.265701418841020498e+00 1.181554320934159907e+00 -7.204671724697511159e-01 0.000000000000000000e+00 0.000000000000000000e+00 0.000000000000000000e+00
1.000000000000000021e-02 -9.350340006044841612e-01 4.348409122834553386e-01 6.966483506834191264e-01 3.740698203227710850e-01 -9.290431129886498329e-01 2.798430702685631988e-01 0.000000000000000000e+00 0.000000000000000000e+00 0.000000000000000000e+00
1.000000000000000021e-02 -1.413581143006804597e-01 8.588289946073723868e-01 -1.486655463259099141e+00 -2.184759976867299003e-01 6.875405233266356220e-01 6.128501978405700434e-01 0.000000000000000000e+00 0.000000000000000000e+00 0.000000000000000000e+00
1.000000000000000021e-02 -1.227422000036607619e+00 -5.289092608552034558e-02 -1.753811951896607213e-01 -5.277313910524551455e-01 -1.450157652663942809e+00 2.630631264924579438e-01 0.000000000000000000e+00 0.000000000000000000e+00 0.000000000000000000e+00
1.000000000000000021e-02 5.064290287301556059e-01 -5.595801850784748455e-01 -1.282622575410080401e+00 6.085622330611494268e-01 -1.350886987507733117e-01 2.113415923756760240e+00 0.000000000000000000e+00 0.000000000000000000e+00 0.000000000000000000e+00
1.000000000000000021e-02 1.591924898380694620e+00 1.369583864902845782e-01 -1.636693541436823329e+00 -1.443674526779702205e+00 1.945517041204427366e+00 -6.555787174185645494e-01 0.000000000000000000e+00 0.000000000000000000e+00 0.000000000000000000e+00
1.000000000000000021e-02 -2.024335202595351824e+00 -1.329834788908355048e+00 7.706697922265523526e-02 8.335075518130659056e-01 -1.101795152995848293e+00 -5.850724582821564823e-01 0.000000000000000000e+00 0.000000000000000000e+00 0.000000000000000000e+00
1.000000000000000021e-02 -7.620339190753231406e-01 6.649276548381897189e-01 -2.432092714084074014e+00 -6.099113231563109139e-01 1.893411745576195626e+00 -5.038473612344109009e-02 0.000000000000000000e+00 0.000000000000000000e+00 0.000000000000000000e+00
1.000000000000000021e-02 2.029299439406286432e+00 1.312489608329818980e+00 1.187523094811526042e-01 9.350655639663255636e-01 -4.889380817774697796e-01 -8.033936170566110535e-01 0.000000000000000000e+00 0.000000000000000000e+00 0.000000000000000000e+00
1.000000000000000021e-02 1.207371855289644635e+00 -1.502551514760179507e-01 -3.040220819347815850e-01 -8.001829735324853532e-01 -5.054924722676684690e-01 -9.108741047852700889e-01 0.000000000000000000e+00 0.000000000000000000e+00 0.000000000000000000e+00
1.000000000000000021e-02 3.598183201105605300e-01 7.678947385262362424e-01 1.592668248541057319e-01 -1.113579572747744439e+00 -5.269758882947439549e-01 -1.094963475729194835e+00 0.000000000000000000e+00 0.000000000000000000e+00 0.000000000000000000e+00
1.000000000000000021e-02 1.977884837750348013e-01 1.669692518794517522e+00 -2.543611232664347299e-01 -1.904840205441533929e-01 1.214409010658150934e-01 3.666227021965165478e-01 0.000000000000000000e+00 0.000000000000000000e+00 0.000000000000000000e+00
1.000000000000000021e-02 1.403653599487252990e+00 1.833183607493431011e-01 1.893907575922710584e-01 5.807905783735167748e-01 2.084325624283814987e-02 -1.490971615460500929e-02 0.000000000000000000e+00 0.000000000000000000e+00 0.000000000000000000e+00
1.000000000000000021e-02 -2.707604647155490873e+00 -6.205414012180610062e-01 8.705413300976562185e-01 -3.310111587595104266e-01 -9.540529978891718610e-01 7.795817316572949129e-02 0.000000000000000000e+00 0.000000000000000000e+00 0.000000000000000000e+00
1.000000000000000021e-02 3.513884531625097729e-01 -1.443859400460541509e-01 1.363492050120922894e+00 6.019906312887253197e-01 1.860619460494481903e+00 -7.119758666600153885e-02 0.000000000000000000e+00 0.000000000000000000e+00 0.000000000000000000e+00
1.000000000000000021e-02 1.615199346551634330e+00 -1.151707675049098656e+00 -6.899866909154365180e-01 8.119623403424568453e-01 -2.039357658516611327e+00 7.822094771689820369e-01 0.000000000000000000e+00 0.000000000000000000e+00 0.000000000000000000e+00
1.000000000000000021e-02 -1.290333001328571649e+00 1.202021687753916712e+00 -7.554993200296782341e-01 -6.162221718045919339e-01 -8.807148163219682413e-01 -1.176272011540457907e+00 0.000000000000000000e+00 0.000000000000000000e+00 0.000000000000000000e+00
1.000000000000000021e-02 -1.235252231597130379e+00 -2.344482002059699866e-01 -4.885250230655963644e-01 2.028247364032716438e-01 -7.068367081934635587e-01 -2.401619631612860184e-01 0.000000000000000000e+00 0.000000000000000000e+00 0.000000000000000000e+00
1.000000000000000021e-02 4.195744066688796292e-01 1.652758977911344407e-01 2.758299682112733686e-01 -9.357397941027506549e-02 4.583363374468431006e-01 -2.314544007229940359e+00 0.000000000000000000e+00 0.000000000000000000e+00 0.000000000000000000e+00
1.000000000000000021e-02 1.838707932563405034e+00 -1.954294867540248282e+00 -1.945953173420556515e-01 -5.976908629952299989e-01 -4.790502855399162430e-01 1.960973659981100070e+00 0.000000000000000000e+00 0.000000000000000000e+00 0.000000000000000000e+00
1.000000000000000021e-02 -1.059165223837332359e+00 -6.128138976897585799e-01 1.054053955688977195e+00 1.909396025388536478e+00 -8.713308341112642463e-02 3.801251829538246363e-02 0.000000000000000000e+00 0.000000000000000000e+00 0.000000000000000000e+00
1.000000000000000021e-02 1.746559994461169829e-01 1.122287498961172192e+00 -5.510774047582309709e-01 1.306505381846779015e-02 -3.021610868997897104e-01 1.454826510171031595e+00 0.000000000000000000e+00 0.000000000000000000e+00 0.000000000000000000e+00
1.000000000000000021e-02 -8.020188295499935949e-01 -4.357748451124446656e-03 6.870876943276933435e-01 -1.013093865662658022e+00 1.909376118564714286e-01 2.173918122531632857e-01 0.000000000000000000e+00 0.000000000000000000e+00 0.000000000000000000e+00
1.000000000000000021e-02 -2.683559690440158463e-02 -1.025122171288803674e+00 -5.345922328971409732e-01 5.385718591923228660e-01 -3.260869306068690521e-01 -1.090073618777731346e+00 0.000000000000000000e+00 0.000000000000000000e+00 0.000000000000000000e+00
1.000000000000000021e-02 -1.214815951703273278e+00 -8.625946029963112993e-01 6.406076810184906378e-01 -6.620914073154752222e-01 -4.255374613125469385e-01 1.293030788818698040e+00 0.000000000000000000e+00 0.000000000000000000e+00 0.000000000000000000e+00
1.000000000000000021e-02 -8.741699994627313286e-01 -1.120634199578886880e+00 -8.221042783498843098e-01 -5.586201670755724241e-03 -1.311699594977952632e+00 1.139992546441795707e+00 0.000000000000000000e+00 0.000000000000000000e+00 0.000000000000000000e+00
1.000000000000000021e-02 -1.714826133466845537e+00 -1.054624875817063101e+00 -1.640215707317509208e+00 -7.046763348595730392e-01 1.876836279603859015e-01 -3.482436003443378780e-01 0.000000000000000000e+00 0.000000000000000000e+00 0.000000000000000000e+00
1.000000000000000021e-02 4.596333710340433365e-02 1.223000262072419853e+00 1.839163047130353279e-01 4.377498040748320496e-01 7.858746438670488610e-01 -4.089265877047879028e-02 0.000000000000000000e+00 0.000000000000000000e+00 0.000000000000000000e+00
1.000000000000000021e-02 4.569241731197167256e-01 -1.323382728508701645e+00 1.578647866072355077e+00 -1.754545177738273398e-01 -2.757152278553990365e-01 7.837203366142631022e-01 0.000000000000000000e+00 0.000000000000000000e+00 0.000000000000000000e+00
1.000000000000000021e-02 3.992870481548645156e-02 4.236200230557202878e-02 -5.885927207263514926e-01 1.005522834730353088e+00 8.042725393318498339e-01 -1.019471711499163824e+00 0.000000000000000000e+00 0.000000000000000000e+00 0.000000000000000000e+00
1.000000000000000021e-02 3.300412983009054502e-01 -1.194412516356468945e+00 6.054807264299132130e-02 -7.718771004361825172e-01 1.501892230192046485e-01 6.323769112122464842e-01 0.000000000000000000e+00 0.000000000000000000e+00 0.000000000000000000e+00
1.000000000000000021e-02 -1.011404336785112212e+00 -3.043447343252354553e-01 7.298973491456848262e-01 8.893910961480233635e-01 5.879143373929466287e-01 2.274901944275911525e+00 0.000000000000000000e+00 0.000000000000000000e+00 0.000000000000000000e+00
1.000000000000000021e-02 1.297905376420155132e+00 1.465138731473242695e+00 1.327570506214335921e+00 -9.783432541650416425e-01 -3.451422416953394134e-01 -4.547032608507174389e-01 0.000000000000000000e+00 0.000000000000000000e+00 0.000000000000000000e+00
1.000000000000000021e-02 1.980833015668790997e+00 -1.274556955654654322e+00 2.618872624206279240e-02 -8.395873452796938086e-01 -9.565491505041032738e-01 -1.335332650893563899e+00 0.000000000000000000e+00 0.000000000000000000e+00 0.000000000000000000e+00
1.000000000000000021e-02 -2.453227923860517301e-01 -7.942155015447248667e-01 3.341194359412686388e-01 -8.648569454092580600e-02 -1.236887970402773762e+00 -6.600832605515014606e-01 0.000000000000000000e+00 0.000000000000000000e+00 0.000000000000000000e+00
1.000000000000000021e-02 -1.871279025521808970e-01 5.681829261567228340e-01 -5.253908224729387788e-01 9.161908409452833579e-01 1.492300869308828215e+00 4.631697599213970840e-01 0.000000000000000000e+00 0.000000000000000000e+00 0.000000000000000000e+00
1.000000000000000021e-02 -6.730824637926849929e-01 1.042179439170475508e+00 4.201989365608946314e-01 8.213011526106045457e-01 1.118356160629158325e+00 1.177728115133590991e+00 0.000000000000000000e+00 0.000000000000000000e+00 0.000000000000000000e+00
1.000000000000000021e-02 1.619450526900888254e-01 1.743425368734238465e-02 9.051556936188920321e-02 -1.673058341185511555e+00 -2.097646549947870809e-01 7.516589554685089158e-01 0.000000000000000000e+00 0.000000000000000000e+00 0.000000000000000000e+00
1.000000000000000021e-02 1.830203246377334114e+00 2.247246611701287033e+00 -9.216379826526108765e-01 1.371157515425418527e+00 6.315511993734828078e-01 2.686941858551971318e+00 0.000000000000000000e+00 0.000000000000000000e+00 0.000000000000000000e+00
1.000000000000000021e-02 3.457030196580368475e-02 -1.156251446871903316e-01 -6.216819948031592213e-01 8.140862144870147921e-01 9.670099000575649306e-01 -2.732569470543328438e-01 0.000000000000000000e+00 0.000000000000000000e+00 0.000000000000000000e+00
1.000000000000000021e-02 8.864560600183830630e-01 4.567718574717886115e-01 -1.989865604459837511e+00 -1.037395686653060922e+00 -8.139345607956132156e-01 2.518328741217317757e-01 0.000000000000000000e+00 0.000000000000000000e+00 0.000000000000000000e+00
1.000000000000000021e-02 -5.576144202059668542e-01 -4.603030779634511016e-01 -1.552773666682655263e+00 -4.539217731691951307e-01 -1.800705105066599254e-01 5.706329641923203466e-01 0.000000000000000000e+00 0.000000000000000000e+00 0.000000000000000000e+00
1.000000000000000021e-02 -1.776493737465446865e-01 -2.708995154927472115e-01 -4.820390350875499164e-01 -4.644504144834129544e-01 1.672858619261435864e-01 1.802294705396658481e+00 0.000000000000000000e+00 0.000000000000000000e+00 0.000000000000000000e+00
1.000000000000000021e-02 1.210824028079056230e-01 -1.132360689076260307e+00 8.802608728270546745e-01 1.964168028607184702e-01 -1.824389693339260710e+00 -3.201369237580264482e+00 0.000000000000000000e+00 0.000000000000000000e+00 0.000000000000000000e+00
1.000000000000000021e-02 -1.259849671652655489e+00 -8.631900475956271190e-01 -2.509835776151403408e-01 3.074613593377559795e-01 -4.121110433134596296e-02 2.695866070564900685e-01 0.000000000000000000e+00 0.000000000000000000e+00 0.000000000000000000e+00
1.000000000000000021e-02 6.754015007320044450e-01 -9.212707618869604709e-02 -5.942427138084581673e-01 -9.304505899295237858e-01 -1.152645046182526389e+00 -4.462208399519565494e-01 0.000000000000000000e+00 0.000000000000000000e+00 0.000000000000000000e+00
1.000000000000000021e-02 1.701274936416122152e+00 -1.952203900290564731e-01 9.507786451978905706e-01 9.591064422779989052e-01 -5.332622823491970365e-01 4.289475664423694212e-01 0.000000000000000000e+00 0.000000000000000000e+00 0.000000000000000000e+00
1.000000000000000021e-02 -1.626706735039542828e-01 1.998194323085531687e+00 -4.634338405509322301e-03 2.823599693340000383e-01 6.275409653515331421e-01 -1.926593867748778166e+00 0.000000000000000000e+00 0.000000000000000000e+00 0.000000000000000000e+00
1.000000000000000021e-02 -1.242051515068088446e-01 4.085882244587930034e-01 -6.583353685371633457e-01 -1.173316431187919173e+00 -6.473399694062815790e-01 6.442067292835235159e-01 0.000000000000000000e+00 0.000000000000000000e+00 0.000000000000000000e+00
1.000000000000000021e-02 7.426262111245205411e-01 1.075914843106957841e+00 1.765246626236453009e-01 -4.057215095025910045e-01 -8.788331955817615393e-01 5.959989944161895314e-01 0.000000000000000000e+00 0.000000000000000000e+00 0.000000000000000000e+00
1.000000000000000021e-02 -3.522518762342585763e-01 2.067568604628461593e+00 5.743450204199024300e-01 -1.448576867166755933e-01 -1.137942029371628472e+00 1.911093575161288416e-01 0.000000000000000000e+00 0.000000000000000000e+00 0.000000000000000000e+00
1.000000000000000021e-02 -3.837178265135441357e-01 6.780325167928272778e-01 -7.123621345203993982e-03 -1.639870462037568366e+00 2.179998353057431559e-01 -1.492566092476351969e+00 0.000000000000000000e+00 0.000000000000000000e+00 0.000000000000000000e+00
1.000000000000000021e-02 -1.639018432802689773e+00 -4.521338967685065713e-01 9.527804092055741636e-01 -1.074654510656612993e+00 -9.349005100906089272e-01 -2.691124637234234007e-01 0.000000000000000000e+00 0.000000000000000000e+00 0.000000000000000000e+00
1.000000000000000021e-02 4.980994287114796637e-01 1.400694549483247231e+00 -2.694493500974726174e+00 -1.229830372458448062e+00 -7.730265071322017789e-01 -1.461334747930503331e-01 0.000000000000000000e+00 0.000000000000000000e+00 0.000000000000000000e+00
1.000000000000000021e-02 -4.153169060720204864e-01 2.401488262025693599e-01 1.117480451012552445e+00 7.432219696758584071e-01 5.216030867243539593e-01 -2.284386237899034555e-01 0.000000000000000000e+00 0.000000000000000000e+00 0.000000000000000000e+00
1.000000000000000021e-02 -6.871131550543583266e-01 -6.280515616982087490e-01 -2.014993078901430867e-02 5.218394856071765231e-01 3.482679878020588093e-01 6.102655371412661900e-01 0.000000000000000000e+00 0.000000000000000000e+00 0.000000000000000000e+00
1.000000000000000021e-02 -3.059457192172862494e-01 -7.461176207258470860e-01 8.741201135706877512e-02 -8.191453859332625820e-01 -8.022346712806824875e-01 -1.099283101618826031e+00 0.000000000000000000e+00 0.000000000000000000e+00 0.000000000000000000e+00
1.000000000000000021e-02 2.285732159724988222e+00 -1.091276959363381316e+00 6.026780973884395820e-01 6.148523952241945478e-01 -1.585374683589827471e-01 7.519649137869172106e-02 0.000000000000000000e+00 0.000000000000000000e+00 0.000000000000000000e+00
1.000000000000000021e-02 -1.299526244324777924e-01 4.617259037191039361e-01 -6.719326091330712902e-01 3.362533031210230283e-01 -1.151199089935088515e-01 -9.972971854127314906e-01 0.000000000000000000e+00 0.000000000000000000e+00 0.000000000000000000e+00
1.000000000000000021e-02 8.392008964344023214e-01 -1.049627173430145999e-01 6.055618905470562252e-01 9.311519917276114278e-01 -5.079844478648157802e-01 1.413308700077891666e+00 0.000000000000000000e+00 0.000000000000000000e+00 0.000000000000000000e+00
1.000000000000000021e-02 1.803023045979205152e+00 -9.691981517021249770e-01 9.722728291561339997e-01 6.309732419504988643e-01 1.243242152076721313e-01 6.372414187873387537e-02 0.000000000000000000e+00 0.000000000000000000e+00 0.000000000000000000e+00
1.000000000000000021e-02 -8.771675790754934754e-01 -5.081900275379642729e-01 -1.189058151666937180e+00 9.453939141289233739e-01 1.936138375692674496e-01 8.509846127366175184e-01 0.000000000000000000e+00 0.000000000000000000e+00 0.000000000000000000e+00
1.000000000000000021e-02 -6.755358324969217287e-01 -5.707954176511863542e-01 -3.597160418324484854e-01 2.404381556110118667e-01 1.852146574386505984e+00 -2.258825977134217011e-01 0.000000000000000000e+00 0.000000000000000000e+00 0.000000000000000000e+00
1.000000000000000021e-02 2.426545190131522978e-01 -1.002371272774009586e-01 4.659396488662838065e-01 -1.155792952962248377e+00 -2.178961717911761242e-01 -1.079878323902973225e+00 0.000000000000000000e+00 0.000000000000000000e+00 0.000000000000000000e+00
1.000000000000000021e-02 -4.534833772248920702e-01 5.381414961475914360e-01 -7.328495079571210047e-01 1.775701307990194655e+00 -7.037346607367104268e-01 -8.294444181839879526e-01 0.000000000000000000e+00 0.000000000000000000e+00 0.000000000000000000e+00
1.000000000000000021e-02 -1.094529375905673785e+00 3.535999154941027456e-01 -1.083350625322526684e-01 7.891741458005865351e-01 -7.103008481888500869e-02 -7.612530778699346801e-01 0.000000000000000000e+00 0.000000000000000000e+00 0.000000000000000000e+00
1.000000000000000021e-02 5.443036146700364064e-01 -1.639090468743934714e+00 5.867703532085514206e-01 -6.013611570070650711e-03 -8.292009451120898600e-01 2.930119230733125857e-01 0.000000000000000000e+00 0.000000000000000000e+00 0.000000000000000000e+00
1.000000000000000021e-02 3.352386778445765048e-01 5.759487591780189097e-01 7.752829672056494870e-01 9.348461305693118728e-01 -4.052742436266908166e-02 -6.908891904233034342e-01 0.000000000000000000e+00 0.000000000000000000e+00 0.000000000000000000e+00
1.000000000000000021e-02 1.118774307824282888e+00 1.945374989539440547e+00 -1.459470197347057852e+00 -1.544582105143532447e+00 -8.709950657088910697e-01 -4.118671508198180065e-01 0.000000000000000000e+00 0.000000000000000000e+00 0.000000000000000000e+00
1.000000000000000021e-02 1.562187167703053658e+00 2.765898303918450374e-01 -3.175074185374720415e+00 5.684307234901433969e-02 2.296669135087551772e-01 3.980988372778080930e-01 0.000000000000000000e+00 0.000000000000000000e+00 0.000000000000000000e+00
1.000000000000000021e-02 9.031701149762851877e-01 -1.068481344522103971e+00 -2.106970551150640081e-01 -1.206774317380426842e+00 1.048298562032278003e+00 2.394987460804942625e+00 0.000000000000000000e+00 0.000000000000000000e+00 0.000000000000000000e+00
1.000000000000000021e-02 -2.760461625880197833e-01 -3.972296481689189390e-02 7.862383980325793331e-01 -2.081354810407926692e+00 7.357989971643401628e-01 -5.610869026318139330e-01 0.000000000000000000e+00 0.000000000000000000e+00 0.000000000000000000e+00
1.000000000000000021e-02 6.460209301084163247e-01 -8.079531596760981538e-01 1.759331376372893357e-02 -5.048492264574633293e-01 -1.224040779616071273e+00 6.092725745500165990e-01 0.000000000000000000e+00 0.000000000000000000e+00 0.000000000000000000e+00
1.000000000000000021e-02 4.994055315910926329e-01 -1.738796118862528939e-01 9.425772974128995285e-01 -1.712810129185764030e+00 -9.239569230107075315e-01 -9.555112694912207827e-01 0.000000000000000000e+00 0.000000000000000000e+00 0.000000000000000000e+00
1.000000000000000021e-02 7.019792047908167687e-01 1.783272942091888469e+00 -3.783485805875381747e-01 1.226895787004092631e+00 7.190747412010176642e-01 1.379439106371021184e+00 0.000000000000000000e+00 0.000000000000000000e+00 0.000000000000000000e+00
1.000000000000000021e-02 -9.752029600550449207e-01 -1.168178497659751569e+00 2.811209092023529976e-01 -1.282711666586681121e+00 1.534225848581113105e+00 -1.474760391403419302e+00 0.000000000000000000e+00 0.000000000000000000e+00 0.000000000000000000e+00
1.000000000000000021e-02 -1.769149914321226147e+00 -8.621166639019151035e-01 7.030177579176485891e-02 6.158782814841888831e-01 -1.932510682459435802e+00 -3.613775344204719908e-01 0.000000000000000000e+00 0.000000000000000000e+00 0.000000000000000000e+00
1.000000000000000021e-02 -6.331312040101837457e-01 1.035104522631629109e-01 -4.728211715587940511e-01 -3.219214999296224344e-01 -1.738379363751785811e-01 7.282892197177210925e-01 0.000000000000000000e+00 0.000000000000000000e+00 0.000000000000000000e+00
1.000000000000000021e-02 1.189407417025997032e-02 -2.818414588137106436e-01 -6.669461015279770644e-01 2.209659663129379226e+00 7.312503640833279972e-01 -1.862006937246631910e+00 0.000000000000000000e+00 0.000000000000000000e+00 0.000000000000000000e+00
1.000000000000000021e-02 2.173163003408439486e+00 1.016771995101266368e+00 5.823096623551401452e-01 5.789592454113166031e-01 7.832709755116539219e-01 2.409414562932341852e-01 0.000000000000000000e+00 0.000000000000000000e+00 0.000000000000000000e+00
1.000000000000000021e-02 -4.489508537920199882e-01 -1.675899516651301546e+00 -2.601311362472660260e+00 -1.644884662202240055e-01 6.708251768401757298e-01 9.631977823332203981e-01 0.000000000000000000e+00 0.000000000000000000e+00 0.000000000000000000e+00
1.000000000000000021e-02 1.061056976924227513e+00 6.628679939300456958e-01 1.152877108684766894e+00 1.566728656855100210e+00 1.343059734338699407e+00 1.618260193229904997e+00 0.000000000000000000e+00 0.000000000000000000e+00 0.000000000000000000e+00
1.000000000000000021e-02 -7.293238273910696012e-01 -1.850883705399812007e-01 -1.568413283431517868e-01 7.774909621337773302e-01 -2.124474948786680528e+00 -2.066690245924451830e-01 0.000000000000000000e+00 0.000000000000000000e+00 0.000000000000000000e+00
1.000000000000000021e-02 -1.377547952482206968e-02 1.973122847432262073e-01 4.928464110731228809e-01 7.593231766136826488e-01 5.575067421537751589e-01 1.257489923608024140e+00 0.000000000000000000e+00 0.000000000000000000e+00 0.000000000000000000e+00
1.000000000000000021e-02 1.247005028630974871e-01 -1.366401695801457095e+00 -5.661101893462165968e-01 1.279936169788732370e+00 6.672900699210211339e-01 1.488288235866749076e+00 0.000000000000000000e+00 0.000000000000000000e+00 0.000000000000000000e+00
1.000000000000000021e-02 -4.948378497780457907e-01 1.235567819541183304e-01 -1.109896035751493981e+00 5.751346920015105724e-01 3.270530454081657101e-01 1.214634126872710773e+00 0.000000000000000000e+00 0.000000000000000000e+00 0.000000000000000000e+00
1.000000000000000021e-02 6.934638011075375807e-01 5.009206402104368072e-01 -1.086856782664619381e+00 3.655101385089100097e-01 -6.500649023015995231e-01 2.508695396030926172e+00 0.000000000000000000e+00 0.000000000000000000e+00 0.000000000000000000e+00
1.000000000000000021e-02 -7.081211131546654158e-01 -5.503008712031174365e-01 -3.833616648513282765e-01 -1.818689189005695317e+00 4.231625460270951322e-01 8.724221989697595880e-01 0.000000000000000000e+00 0.000000000000000000e+00 0.000000000000000000e+00
1.000000000000000021e-02 -1.175457725073033588e-01 -5.051481136121679372e-01 -2.050654770025766016e+00 -7.161568510365254880e-01 -1.108734722042275855e+00 3.410120773180126963e-01 0.000000000000000000e+00 0.000000000000000000e+00 0.000000000000000000e+00
1.000000000000000021e-02 -5.830040348566132291e-01 -5.796637640165712702e-01 -2.945125279443041033e-01 -2.520448289028477951e-01 -7.873290975489751764e-01 2.032479987181310399e+00 0.000000000000000000e+00 0.000000000000000000e+00 0.000000000000000000e+00
1.000000000000000021e-02 4.911239134333297840e-02 5.244872562896666368e-01 1.744906134072088388e+00 1.030241430748797704e+00 9.995707475721572477e-01 -2.135982803626504278e+00 0.000000000000000000e+00 0.000000000000000000e+00 0.000000000000000000e+00
1.000000000000000021e-02 -5.761232093961529133e-01 2.059746152576255263e+00 9.718328528056124904e-02 1.288604185205167507e+00 3.200083789296336856e-01 5.409021629755280669e-01 0.000000000000000000e+00 0.000000000000000000e+00 0.000000000000000000e+00
1.000000000000000021e-02 1.492404381820699316e-03 2.396904491630241218e-01 2.407794501407786378e-02 9.845715224455477976e-01 -9.936275135529708535e-01 9.341097314131598939e-01 0.000000000000000000e+00 0.000000000000000000e+00 0.000000000000000000e+00
1.000000000000000021e-02 -1.415883500085508118e+00 -1.041166756151162165e+00 -1.198818953452120140e-01 1.084349263597132046e-01 9.183367725576173646e-01 4.358003634912370194e-01 0.000000000000000000e+00 0.000000000000000000e+00 0.000000000000000000e+00
1.000000000000000021e-02 -7.364888650622321009e-01 5.144753807831509151e-01 4.422565923404865873e-01 -4.010608274834374098e-01 -2.132795948966308863e+00 -1.729023917204343785e+00 0.000000000000000000e+00 0.000000000000000000e+00 0.000000000000000000e+00
1.000000000000000021e-02 2.193746475245567762e+00 -4.910674216155594407e-01 -1.343273638523590635e-02 -6.942952592648726773e-01 1.222970342325284676e+00 7.789624259079565016e-01 0.000000000000000000e+00 0.000000000000000000e+00 0.000000000000000000e+00
1.000000000000000021e-02 1.851013391879335224e+00 -2.295512978778927182e-01 -2.680065470614038325e+00 1.274930666501805643e+00 -2.185128804439384897e-01 3.293336472171676244e-01 0.000000000000000000e+00 0.000000000000000000e+00 0.000000000000000000e+00
1.000000000000000021e-02 -5.671820216771650269e-01 3.884451959799297138e-01 1.363484840155138489e+00 8.934843621181457474e-01 -3.434495517815991383e-01 -8.701062477082166513e-02 0.000000000000000000e+00 0.000000000000000000e+00 0.000000000000000000e+00
1.000000000000000021e-02 1.398228612565689977e+00 -2.257352497143763514e+00 -2.347107549079130162e-01 -1.521427146255874829e+00 -9.108023753677392254e-01 1.804480127696731218e-01 0.000000000000000000e+00 0.000000000000000000e+00 0.000000000000000000e+00
1.000000000000000021e-02 -7.748274583210407185e-01 -5.148054937118876628e-01 1.945317942908791231e+00 -5.835084106482996136e-01 5.635469703647383310e-01 -7.679048967133169645e-01 0.000000000000000000e+00 0.000000000000000000e+00 0.000000000000000000e+00
1.000000000000000021e-02 -8.759327213088030639e-03 7.685150684785840847e-01 4.125853146758808876e-01 1.214451722665699229e+00 -5.456618749381483280e-01 4.279187731938152717e-01 0.000000000000000000e+00 0.000000000000000000e+00 0.000000000000000000e+00
1.000000000000000021e-02 1.031731787042263981e+00 6.220614868489940941e-01 1.646123320834280007e-02 -1.942206035488979854e+00 2.863372374318327473e+00 -8.687609967195565330e-01 0.000000000000000000e+00 0.000000000000000000e+00 0.000000000000000000e+00
1.000000000000000021e-02 3.467890595639646634e-01 1.275756348120062611e-01 8.539862710888243558e-02 7.529149038602783728e-01 1.113606154003296655e+00 2.829338158782805299e-02 0.000000000000000000e+00 0.000000000000000000e+00 0.000000000000000000e+00
1.000000000000000021e-02 2.089562545665815674e-01 5.652360650360698235e-01 -2.817470670443231739e+00 5.211620258354712210e-01 -9.924885771354819974e-01 -1.488354951614861421e-01 0.000000000000000000e+00 0.000000000000000000e+00 0.000000000000000000e+00
1.000000000000000021e-02 7.403699297523110012e-02 -1.995366200872604967e+00 9.646464494309097137e-01 5.644834033392313044e-01 1.201350695018215342e+00 -9.894605977239803174e-01 0.000000000000000000e+00 0.000000000000000000e+00 0.000000000000000000e+00
1.000000000000000021e-02 1.147111554306464054e+00 -9.124367695685510204e-01 4.940007004001256141e-01 5.085191999068755520e-01 4.441964393188360671e-01 -1.573673805295881245e-01 0.000000000000000000e+00 0.000000000000000000e+00 0.000000000000000000e+00
1.000000000000000021e-02 1.327459362523206954e+00 4.909563954794935459e-01 5.897177550838053062e-01 -2.708834230393931120e-01 1.817866811338868294e+00 9.115331510305866303e-01 0.000000000000000000e+00 0.000000000000000000e+00 0.000000000000000000e+00
1.000000000000000021e-02 8.732177632131666867e-01 1.385980168433392778e+00 8.398488422510280715e-01 4.295030647861613482e-01 1.406861797021625060e+00 -1.062968804459649252e+00 0.000000000000000000e+00 0.000000000000000000e+00 0.000000000000000000e+00
1.000000000000000021e-02 9.419752954822004920e-01 1.141580825975159891e-01 7.175605073141602119e-01 -9.932116556143436581e-01 6.279426966605294869e-02 -7.728475279065644132e-03 0.000000000000000000e+00 0.000000000000000000e+00 0.000000000000000000e+00
1.000000000000000021e-02 -7.629542064665525425e-01 -4.029098453972733695e-01 -1.479745083254317306e+00 -1.456722107965751078e+00 1.236568112079988513e+00 -8.265819439055714646e-02 0.000000000000000000e+00 0.000000000000000000e+00 0.000000000000000000e+00
1.000000000000000021e-02 1.233982968379417233e+00 7.140999214353375146e-01 4.952211343473207905e-01 -8.888104563439611638e-01 1.164308870407584351e+00 1.347459381609350526e+00 0.000000000000000000e+00 0.000000000000000000e+00 0.000000000000000000e+00
1.000000000000000021e-02 3.177187847153359335e-01 -1.251437077289723643e+00 8.632286593483594617e-01 -4.903618596797111873e-01 -1.438018993625951314e+00 -1.338314646972354804e+00 0.000000000000000000e+00 0.000000000000000000e+00 0.000000000000000000e+00
1.000000000000000021e-02 -1.471814711913346008e+00 2.156805840393290208e-01 1.777635427485361186e+00 6.642625310239518299e-01 -1.682058516136938076e-01 -2.544289028267278652e-01 0.000000000000000000e+00 0.000000000000000000e+00 0.000000000000000000e+00
1.000000000000000021e-02 5.842888896681668331e-01 -2.880369429163595618e-02 -2.830741563746821954e-01 1.149668037907253249e+00 1.259836336998002571e-01 -1.736694186240070881e+00 0.000000000000000000e+00 0.000000000000000000e+00 0.000000000000000000e+00
1.000000000000000021e-02 -2.333627546322351698e+00 2.468996146746708087e-01 -4.365727130903662712e-01 6.948688805800492529e-01 -1.771346019128521021e-02 1.273466893122780164e+00 0.000000000000000000e+00 0.000000000000000000e+00 0.000000000000000000e+00
1.000000000000000021e-02 -1.129538719416540937e+00 -2.142741484386732898e-01 -1.608770992252791743e+00 7.158830140708409839e-01 -1.912908324854040165e-01 -3.403779917775848762e-01 0.000000000000000000e+00 0.000000000000000000e+00 0.000000000000000000e+00
1.000000000000000021e-02 3.415422365941406802e-01 8.553414401592411842e-01 1.141844490997758976e+00 -1.513228342136591076e+00 1.264419474610957828e+00 -3.948361121182260014e-01 0.000000000000000000e+00 0.000000000000000000e+00 0.000000000000000000e+00
1.000000000000000021e-02 1.448751875989470861e+00 9.676939618958424472e-02 1.462836681743309830e+00 6.198981851327128867e-01 5.209705332119954901e-01 4.612804522730368229e-01 0.000000000000000000e+00 0.000000000000000000e+00 0.000000000000000000e+00
1.000000000000000021e-02 -2.274064003538623646e-01 -2.378018254034012013e+00 -7.300601888910002168e-01 -1.054550079139727758e+00 -1.892568052750759122e+00 -1.870092723480338281e-01 0.000000000000000000e+00 0.000000000000000000e+00 0.000000000000000000e+00
1.000000000000000021e-02 -3.747034604075534792e-01 -2.507277038177033179e-02 4.133876345150360732e-01 -6.271869839181365425e-01 -3.659120896638645704e-01 -3.336762337082545549e-01 0.000000000000000000e+00 0.000000000000000000e+00 0.000000000000000000e+00
1.000000000000000021e-02 3.344563830255335712e-02 3.027247698957825639e-01 5.718293605501029164e-01 7.324127205703269139e-01 -1.561819304376097783e-01 -1.658382279614403876e+00 0.000000000000000000e+00 0.000000000000000000e+00 0.000000000000000000e+00
1.000000000000000021e-02 6.399812485815910279e-02 1.411884339212189143e+00 1.558528895650284518e+00 5.801651704925152586e-01 -6.749669126058840396e-01 -2.339051043151336273e+00 0.000000000000000000e+00 0.000000000000000000e+00 0.000000000000000000e+00
1.000000000000000021e-02 -8.402579762349959847e-01 -2.475410777199574947e-02 3.748463544941730285e-01 -1.228833080749732742e+00 -3.284515120748161543e-01 3.930587808087641077e-01 0.000000000000000000e+00 0.000000000000000000e+00 0.000000000000000000e+00
1.000000000000000021e-02 -2.456604510183630907e-01 3.899780859033386005e-01 -1.612336644027467569e+00 6.345077818586031260e-02 2.413086074670663272e+00 6.115787714531955022e-01 0.000000000000000000e+00 0.000000000000000000e+00 0.000000000000000000e+00
1.000000000000000021e-02 7.661043382220660281e-01 -4.730128382125919906e-01 3.896255247560229673e-01 -6.264518125606576282e-01 -2.015581246705810958e-02 -5.667218424647559871e-01 0.000000000000000000e+00 0.000000000000000000e+00 0.000000000000000000e+00
1.000000000000000021e-02 -4.624915207200129275e-01 8.972400088637891291e-02 -2.466992290902792484e-01 -8.438598691703503851e-01 -1.449720297724669260e+00 -1.497955313533679278e-01 0.000000000000000000e+00 0.000000000000000000e+00 0.000000000000000000e+00
1.000000000000000021e-02 1.971978429074318528e+00 5.794153060680077294e-01 1.728942846353621388e+00 1.780591627571652902e+00 4.061801981682459650e-01 7.158555035525907551e-01 0.000000000000000000e+00 0.000000000000000000e+00 0.000000000000000000e+00
1.000000000000000021e-02 -7.082148753411119380e-01 3.671581375418784265e-01 4.086432742857090128e-01 -1.324607915464579122e+00 -1.552889862757091288e+00 -5.485946267457203485e-01 0.000000000000000000e+00 0.000000000000000000e+00 0.000000000000000000e+00
1.000000000000000021e-02 5.171658324800597617e-01 6.658598879597479314e-01 5.837563766107668473e-01 -6.079324150142366434e-02 4.075812539308664162e-01 -7.940587106309608956e-01 0.000000000000000000e+00 0.000000000000000000e+00 0.000000000000000000e+00
1.000000000000000021e-02 6.690566378325382701e-02 -1.001185932335502571e+00 5.008742040684882602e-01 5.688408483655611747e-02 -8.313688124848060967e-01 -1.020444101489896171e+00 0.000000000000000000e+00 0.000000000000000000e+00 0.000000000000000000e+00
1.000000000000000021e-02 2.751348777897090203e-01 -3.654028953726026763e-01 -2.737810268981850648e-01 -9.873099022998724772e-01 7.776963963276342651e-02 -2.069820364698899406e-01 0.000000000000000000e+00 0.000000000000000000e+00 0.000000000000000000e+00
1.000000000000000021e-02 -1.910723650554230657e+00 3.099883904855011973e-01 1.127196453889443450e+00 3.420333675111956184e-01 2.649445897576549469e-01 3.410219243296221947e-01 0.000000000000000000e+00 0.000000000000000000e+00 0.000000000000000000e+00
1.000000000000000021e-02 -1.063050342141384386e+00 -8.474527056891993648e-02 1.406811988264008217e+00 -5.314045990588215362e-01 3.725242874128082970e-01 -8.497401982835512957e-01 0.000000000000000000e+00 0.000000000000000000e+00 0.000000000000000000e+00
1.000000000000000021e-02 4.541130253152203533e-01 1.332373598422871508e+00 1.891778611438613422e-01 3.518601567311372413e-01 -1.456863960466552532e+00 -1.439289790485751341e+00 0.000000000000000000e+00 0.000000000000000000e+00 0.000000000000000000e+00
1.000000000000000021e-02 -5.099558978834205503e-01 6.567099857901708138e-01 -1.252936987544858993e-01 8.234511139182297823e-01 -8.758249308861087989e-01 8.631826972959460997e-01 0.000000000000000000e+00 0.000000000000000000e+00 0.000000000000000000e+00
1.000000000000000021e-02 5.412752657368893328e-01 7.611012971116574155e-01 4.385083508805645569e-01 1.826095629754696525e-01 1.779153881640507917e+00 3.334393960700986481e-01 0.000000000000000000e+00 0.000000000000000000e+00 0.000000000000000000e+00
1.000000000000000021e-02 -4.397366351771307413e-01 7.101141450411196931e-01 -1.511780231010412479e+00 4.288330976866422950e-01 -1.171311485078819326e+00 -2.325379912900392421e-01 0.000000000000000000e+00 0.000000000000000000e+00 0.000000000000000000e+00
1.000000000000000021e-02 5.484497565096124738e-01 -6.187132047071951524e-01 8.404959166323704434e-01 -2.039479288166394233e-01 -1.466841801340940554e+00 -2.101754310406879878e+00 0.000000000000000000e+00 0.000000000000000000e+00 0.000000000000000000e+00
1.000000000000000021e-02 1.599651179745596341e+00 -1.254674325196725615e+00 -6.560967006093784137e-01 -1.474698904145107514e-01 -1.448005569771333878e+00 3.411994559051045872e-01 0.000000000000000000e+00 0.000000000000000000e+00 0.000000000000000000e+00
1.000000000000000021e-02 2.204250942226984866e-01 -7.636307526557627456e-01 -1.487006830304575367e+00 9.323343466063200857e-01 3.546881032145521306e-01 5.307281603526660119e-01 0.000000000000000000e+00 0.000000000000000000e+00 0.000000000000000000e+00
1.000000000000000021e-02 1.172315961882107599e-01 1.598828028282296976e-01 -8.634747677654304177e-01 9.689945724486781486e-01 9.042184179273744515e-01 -9.177702407336715829e-02 0.000000000000000000e+00 0.000000000000000000e+00 0.000000000000000000e+00
1.000000000000000021e-02 -2.315813772724409358e-01 1.471351649296520181e+00 -5.630882227851636834e-01 -4.099319407208952826e-01 -9.522980331016037137e-02 1.432540918391489670e+00 0.000000000000000000e+00 0.000000000000000000e+00 0.000000000000000000e+00
1.000000000000000021e-02 1.220669485496178319e-01 -5.692774457223102047e-01 4.476334226297860042e-01 -7.657506111828453754e-01 2.158901628213828694e+00 9.234891036575442191e-01 0.000000000000000000e+00 0.000000000000000000e+00 0.000000000000000000e+00
1.000000000000000021e-02 -2.544134608664609942e-01 2.154190416366881522e-01 -1.104551221804380923e+00 -1.152908298221762218e+00 -1.491547890886982364e+00 1.257960424779950293e-01 0.000000000000000000e+00 0.000000000000000000e+00 0.000000000000000000e+00
1.000000000000000021e-02 -7.414956279325881638e-01 4.967553741226405917e-01 -8.885458042379518195e-01 1.875193073369552321e+00 -9.679853996927213489e-01 5.978529317442604629e-02 0.000000000000000000e+00 0.000000000000000000e+00 0.000000000000000000e+00
1.000000000000000021e-02 -6.648354990678397858e-01 3.445921903698742073e-01 5.864936397629371134e-01 -2.697003067511641650e+00 4.524786076469924367e-01 2.042489136482581014e+00 0.000000000000000000e+00 0.000000000000000000e+00 0.000000000000000000e+00
1.000000000000000021e-02 1.229699172545865443e-01 7.704977832427655215e-01 -4.784215859648786873e-02 -1.458863317646031277e+00 2.015918081296124598e+00 5.152226149102174801e-01 0.000000000000000000e+00 0.000000000000000000e+00 0.000000000000000000e+00
1.000000000000000021e-02 1.961308982138789681e+00 -5.185656207741864421e-01 1.488135532064301381e-01 -8.325261261599046225e-01 4.646640239621254720e-01 -1.232649079459435137e+00 0.000000000000000000e+00 0.000000000000000000e+00 0.000000000000000000e+00
1.000000000000000021e-02 1.080162986086918853e+00 1.107264959225240236e-01 -2.139573706536086029e+00 -8.945389292675615112e-01 1.311842037160795282e+00 -1.581612340599072075e+00 0.000000000000000000e+00 0.000000000000000000e+00 0.000000000000000000e+00
1.000000000000000021e-02 -1.379277019735958287e+00 -1.522044654843872413e+00 8.924488623803465692e-02 4.645476673070453866e-01 -1.602847622786394588e+00 -1.542001520713761065e-01 0.000000000000000000e+00 0.000000000000000000e+00 0.000000000000000000e+00
1.000000000000000021e-02 -1.000305085608486966e+00 -4.978087297334105599e-01 2.049044922126775081e-01 6.661442066959863961e-01 -8.104818615879638699e-01 -9.323323020488000212e-01 0.000000000000000000e+00 0.000000000000000000e+00 0.000000000000000000e+00
1.000000000000000021e-02 -3.216973888520138769e-01 4.794287912437362187e-01 -2.132868911791116595e+00 1.079080473282734431e-01 -9.617304055710815258e-02 -8.192247539376568133e-01 0.000000000000000000e+00 0.000000000000000000e+00 0.000000000000000000e+00
1.000000000000000021e-02 2.880696458696133888e+00 1.551379388281624028e+00 -2.762971434217591504e-01 1.632663601660256480e+00 -1.764571511927207181e+00 4.309661253786343238e-01 0.000000000000000000e+00 0.000000000000000000e+00 0.000000000000000000e+00
1.000000000000000021e-02 5.658890331405952434e-01 1.254958633023168513e-01 -8.250967803523753807e-02 -1.542096298950745403e+00 3.893819478031492198e-01 1.688160065998409509e+00 0.000000000000000000e+00 0.000000000000000000e+00 0.000000000000000000e+00
1.000000000000000021e-02 9.662388036748454923e-01 1.031822860023137389e+00 2.315176052141373897e-01 8.675025289046975341e-02 -7.262397647387710542e-01 -2.669013069609039723e-01 0.000000000000000000e+00 0.000000000000000000e+00 0.000000000000000000e+00
1.000000000000000021e-02 -5.177874917476472660e-01 -1.310370954906324714e-01 2.332862861840496460e-01 1.948384911062374991e+00 -1.767081693978312384e-01 2.401750252627448956e-01 0.000000000000000000e+00 0.000000000000000000e+00 0.000000000000000000e+00
1.000000000000000021e-02 7.126730986542413604e-02 -1.304780723372710671e+00 -1.046784860892354396e-01 -6.175218238188574515e-01 1.363327298232517970e+00 5.580758805094380159e-01 0.000000000000000000e+00 0.000000000000000000e+00 0.000000000000000000e+00
1.000000000000000021e-02 -1.417547420840661876e-01 -1.855320942263393169e-01 -3.816954993900094073e-01 -3.990694233867529417e-01 1.054672440316516191e+00 -1.354095987703720416e+00 0.000000000000000000e+00 0.000000000000000000e+00 0.000000000000000000e+00
1.000000000000000021e-02 1.456772739749045975e+00 -2.707685431393416220e-01 5.811194875308782759e-01 -2.001756350431670217e+00 1.634940831112333015e+00 1.822111365780706649e+00 0.000000000000000000e+00 0.000000000000000000e+00 0.000000000000000000e+00
1.000000000000000021e-02 1.496096309624498577e+00 6.245435794855625639e-02 5.926883985542349409e-01 1.343643890793350337e+00 -1.988628679921084219e-01 -6.180608733943627753e-01 0.000000000000000000e+00 0.000000000000000000e+00 0.000000000000000000e+00
1.000000000000000021e-02 1.667394057363755788e+00 -1.007281186553364571e-02 6.014593254921981602e-01 -9.325949811330280781e-01 2.440561912375769360e-01 -1.792313417336348358e-01 0.000000000000000000e+00 0.000000000000000000e+00 0.000000000000000000e+00
1.000000000000000021e-02 4.806537588888720736e-01 1.288811594606668054e+00 5.366775829321428493e-01 5.660990308557416473e-01 -2.920208322743585994e-01 -5.667750186212852093e-01 0.000000000000000000e+00 0.000000000000000000e+00 0.000000000000000000e+00
1.000000000000000021e-02 2.329836460397332942e+00 -1.181486421409282395e+00 1.876849744590217833e-02 8.791759204564848496e-01 -7.647163316695378965e-01 1.539134916584372403e+00 0.000000000000000000e+00 0.000000000000000000e+00 0.000000000000000000e+00
1.000000000000000021e-02 -6.229612652610775347e-01 5.951025367526505683e-01 1.149973130427516699e+00 2.290081190410158674e-01 1.747689944206364920e+00 1.516470580448441297e+00 0.000000000000000000e+00 0.000000000000000000e+00 0.000000000000000000e+00
1.000000000000000021e-02 1.191593801652789386e+00 1.446330357288565294e+00 -1.129014575174574819e+00 1.619229380733528290e+00 4.424831353126277844e-01 -2.520838457525512943e+00 0.000000000000000000e+00 0.000000000000000000e+00 0.000000000000000000e+00
1.000000000000000021e-02 -2.627702542318700596e-01 4.406811588933303159e-01 -7.351639681792686565e-01 -1.728358183226073264e+00 2.537655207493835219e-01 8.772128436063352241e-01 0.000000000000000000e+00 0.000000000000000000e+00 0.000000000000000000e+00
1.000000000000000021e-02 5.333301448224894159e-01 -1.003007295093099716e+00 -1.887448768959675283e+00 6.769211179877869800e-01 4.794692905287910034e-01 3.903646902902031535e-01 0.000000000000000000e+00 0.000000000000000000e+00 0.000000000000000000e+00
1.000000000000000021e-02 1.627831841167222793e+00 7.427753113338747548e-02 -2.374293951606958608e-01 1.515820443063761402e+00 1.039157808777653319e-01 -4.499182436420970932e-01 0.000000000000000000e+00 0.000000000000000000e+00 0.000000000000000000e+00
1.000000000000000021e-02 1.364034116838030553e+00 -2.828811893890681994e-01 -2.602589930466754631e-04 2.557196640038776891e-01 -1.155124719530647326e+00 4.048378292664532307e-01 0.000000000000000000e+00 0.000000000000000000e+00 0.000000000000000000e+00
1.000000000000000021e-02 1.085901096121633325e+00 1.192561638064507212e+00 -3.639662972526025997e-01 -4.237098166912316999e-01 -7.486322075520092101e-01 -1.987533367684825691e+00 0.000000000000000000e+00 0.000000000000000000e+00 0.000000000000000000e+00
1.000000000000000021e-02 5.108090826582074168e-02 -7.628540428845452803e-01 -2.334884617427948339e-01 4.807360869881368015e-01 7.427039688627726788e-01 5.184424501583021483e-01 0.000000000000000000e+00 0.000000000000000000e+00 0.000000000000000000e+00
1.000000000000000021e-02 -3.569463564579616888e-01 -1.186805321652667056e+00 -1.146204621342126195e+00 -3.478542679492317435e-01 2.332389334655754709e+00 -1.305166832992856074e+00 0.000000000000000000e+00 0.000000000000000000e+00 0.000000000000000000e+00
1.000000000000000021e-02 -6.107364818823011188e-01 6.262853451415376638e-01 6.016584895295727931e-01 1.041586675045020893e-01 -5.129509322003815708e-01 8.658587973596564291e-01 0.000000000000000000e+00 0.000000000000000000e+00 0.000000000000000000e+00
1.000000000000000021e-02 -1.191155746371749258e+00 -2.079637169221843496e-01 -9.690185989804556144e-01 -1.818668328404037693e+00 1.235299410141639687e+00 2.040774502119070632e+00 0.000000000000000000e+00 0.000000000000000000e+00 0.000000000000000000e+00
1.000000000000000021e-02 -1.162469260106582247e+00 -2.276364844621668604e-01 7.882482093275891555e-02 -5.090344144720215791e-01 9.933376132510831624e-01 5.017621875234385964e-01 0.000000000000000000e+00 0.000000000000000000e+00 0.000000000000000000e+00
1.000000000000000021e-02 -5.416372812922602975e-01 -6.802473678017858516e-01 -9.882467248040726071e-01 -5.463365649395961476e-01 -2.971227157132799168e-01 6.535069596363256572e-01 0.000000000000000000e+00 0.000000000000000000e+00 0.000000000000000000e+00
1.000000000000000021e-02 -6.806851246456058213e-02 1.986973189077591573e-01 -3.103692571366330477e-01 -6.436033254662002490e-01 -7.930242827182460985e-01 -1.498462139868802501e+00 0.000000000000000000e+00 0.000000000000000000e+00 0.000000000000000000e+00
