# Total Kinetic Energy: 15224.599102706805 J
# Total Potential Energy: -29055.66187610678 J
# Total Energy: -13831.062773399975 J
# mass x y z vx vy vz ax ay az
1.000000000000000021e-02 -9.862174268197255733e-01 2.430353123449855157e-01 1.423161003140953618e-01 -8.602790141576463490e-02 -1.730153578528609959e+00 -1.110700277515760392e+00 0.000000000000000000e+00 0.000000000000000000e+00 0.000000000000000000e+00
1.000000000000000021e-02 -8.828705358191104580e-01 -6.950052346167797657e-01 1.555894636975611700e+00 -1.143813238059544712e+00 9.255984993909516234e-01 -6.468924881177301467e-02 0.000000000000000000e+00 0.000000000000000000e+00 0.000000000000000000e+00
1.000000000000000021e-02 1.903070647391201797e+00 5.735455591936857722e-01 -1.483757530538549751e-01 3.296021892671075482e-01 2.087085767012683557e-01 -3.317340747768603437e-01 0.000000000000000000e+00 0.000000000000000000e+00 0.000000000000000000e+00
1.000000000000000021e-02 -1.864210044606093630e+00 -6.623286162744694838e-01 -3.738893820158508130e-01 1.409789195367582515e+00 -1.341966204554445596e-01 2.165857728096972079e-01 0.000000000000000000e+00 0.000000000000000000e+00 0.000000000000000000e+00
1.000000000000000021e-02 5.730424270367675543e-01 1.221448183267991761e+00 5.201753897439861940e-02 6.340984652053722748e-01 -7.425127669957121146e-02 -6.263143303501493842e-01 0.000000000000000000e+00 0.000000000000000000e+00 0.000000000000000000e+00
1.000000000000000021e-02 6.222579967116862454e-01 1.467710515094305945e+00 4.921279964475256397e-01 3.342535827918070024e-01 -2.657256991096261789e-01 1.408139490515079029e+00 0.000000000000000000e+00 0.000000000000000000e+00 0.000000000000000000e+00
1.000000000000000021e-02 -6.812418894579544970e-01 8.416001585477089764e-01 9.037376302437288844e-01 -7.427205033946957524e-01 -1.390608983537856558e+00 2.156573926578628786e+00 0.000000000000000000e+00 0.000000000000000000e+00 0.000000000000000000e+00
1.000000000000000021e-02 -1.299428983155646256e+00 1.611627477848380785e-01 1.104649786762286201e+00 6.299293207709285580e-01 3.454700415584762152e-01 -1.373579801409179346e+00 0.000000000000000000e+00 0.000000000000000000e+00 0.000000000000000000e+00
1.000000000000000021e-02 9.033144946648535845e-01 8.855051985874459741e-02 -7.485556519837247014e-02 1.422697872062226088e+00 1.047524180606318328e-01 -2.702508564165594929e-01 0.000000000000000000e+00 0.000000000000000000e+00 0.000000000000000000e+00
1.000000000000000021e-02 4.771056095678566922e-01 -1.850909372558990240e+00 -2.157763557155083500e-01 -1.545243425956410510e+00 5.464601342314617805e-01 -5.418999087171513240e-01 0.000000000000000000e+00 0.000000000000000000e+00 0.000000000000000000e+00
1.000000000000000021e-02 -1.439155054390896193e+00 1.470156521036837471e+00 -7.783854713853242124e-01 -1.878151682070782966e-02 -5.439576777485646275e-01 -3.201798813206200855e-01 0.000000000000000000e+00 0.000000000000000000e+00 0.000000000000000000e+00
1.000000000000000021e-02 1.318283588020960018e+00 6.594910815169328089e-01 -4.301780753176610017e-01 -9.975815555037796933e-01 -4.114653516214705209e-01 -5.941333140285116887e-03 0.000000000000000000e+00 0.000000000000000000e+00 0.000000000000000000e+00
1.000000000000000021e-02 2.183687114222927772e-01 -1.770411300949599753e-01 -3.693370687361333671e-01 4.734030147736584815e-01 2.104659380257722479e+00 7.728362661347136786e-01 0.000000000000000000e+00 0.000000000000000000e+00 0.000000000000000000e+00
1.000000000000000021e-02 2.567779157978291038e-01 -2.668039526224544322e-01 -2.180719939061527057e+00 6.016214538817941104e-01 -3.827516363230719088e-01 -4.525880433271567971e-01 0.000000000000000000e+00 0.000000000000000000e+00 0.000000000000000000e+00
1.000000000000000021e-02 -2.484451159878591664e+00 8.270682376341522701e-01 -5.372723746216518936e-01 -1.419893092819039637e+00 2.406968235906995768e-01 8.095312815789620364e-01 0.000000000000000000e+00 0.000000000000000000e+00 0.000000000000000000e+00
1.000000000000000021e-02 -1.395344861132126857e+00 8.808594672672923620e-01 7.389527798358969113e-01 1.379917826139916315e+00 -3.740372986709842862e-01 2.433522503189177455e-01 0.000000000000000000e+00 0.000000000000000000e+00 0.000000000000000000e+00
1.000000000000000021e-02 -6.272704924887975153e-01 1.833753466070713101e+00 1.415842225163816415e-01 -1.599160047871349466e+00 1.597339135848304004e+00 -1.098932493873332250e+00 0.000000000000000000e+00 0.000000000000000000e+00 0.000000000000000000e+00
1.000000000000000021e-02 -8.214093600517875515e-01 -7.026297329254966861e-01 5.021219466998934067e-01 -7.486502445936854544e-01 -1.391081107350816248e+00 1.231431616304503152e+00 0.000000000000000000e+00 0.000000000000000000e+00 0.000000000000000000e+00
1.000000000000000021e-02 1.202626163365909440e+00 -1.604943299461854656e+00 1.210516382882482533e+00 1.312683798138274405e+00 2.610512685619693074e-01 6.947071691706548924e-01 0.000000000000000000e+00 0.000000000000000000e+00 0.000000000000000000e+00
1.000000000000000021e-02 -9.495637486744855638e-01 9.094458166148270406e-01 8.768580794075930829e-01 -6.343237749546547510e-01 4.933814628561966620e-01 1.549841440331454434e+00 0.000000000000000000e+00 0.000000000000000000e+00 0.000000000000000000e+00
1.000000000000000021e-02 -3.965114976572359229e-01 1.106476293018499923e+00 1.371115348204609896e+00 1.904131290917639552e+00 -3.358646678014544640e-01 7.396884958871584315e-02 0.000000000000000000e+00 0.000000000000000000e+00 0.000000000000000000e+00
1.000000000000000021e-02 -1.408470954810266740e+00 9.592417876890274586e-01 -3.184944745670827970e-01 -8.888457224822708946e-01 5.874351301019965499e-01 6.563885675903333716e-01 0.000000000000000000e+00 0.000000000000000000e+00 0.000000000000000000e+00
1.000000000000000021e-02 5.257074390598281965e-01 -1.196433503549803046e+00 1.000999643975807180e-01 3.816770086521582839e-02 -2.808978620764748246e-01 1.207384647054995153e+00 0.000000000000000000e+00 0.000000000000000000e+00 0.000000000000000000e+00
1.000000000000000021e-02 -5.383313314842149699e-01 9.452912080460159627e-01 8.028069227025682597e-01 -5.252473611461713210e-01 2.207287975181619899e+00 -1.545938627123842668e+00 0.000000000000000000e+00 0.000000000000000000e+00 0.000000000000000000e+00
1.000000000000000021e-02 8.811278205479597392e-02 3.141336421115380473e-01 5.605664139328795370e-01 4.948248675320062739e-01 -6.209513839419081860e-01 -1.658548965719953250e+00 0.000000000000000000e+00 0.000000000000000000e+00 0.000000000000000000e+00
1.000000000000000021e-02 7.342999814426561800e-01 8.713366644765789815e-01 -1.442295656539352766e+00 -4.132439102769911443e-01 5.121988200612074271e-01 9.356121659369448507e-01 0.000000000000000000e+00 0.000000000000000000e+00 0.000000000000000000e+00
1.000000000000000021e-02 -4.202006434449848671e-01 1.655728744966405985e+00 -2.111588143934518547e-01 -1.131012986558659561e+00 2.360646997598080610e+00 5.824213626751031936e-02 0.000000000000000000e+00 0.000000000000000000e+00 0.000000000000000000e+00
1.000000000000000021e-02 -5.709184672214775991e-02 -8.974360005090826764e-01 4.608042776936278062e-01 2.880604654669781661e-01 4.958412308944007973e-01 1.401860661669280805e+00 0.000000000000000000e+00 0.000000000000000000e+00 0.000000000000000000e+00
1.000000000000000021e-02 1.090815686770661014e-01 8.274328799247929744e-01 3.485826863542531573e-01 -1.394571699676944831e+00 -1.766994322449243482e+00 -5.150868621114578216e-01 0.000000000000000000e+00 0.000000000000000000e+00 0.000000000000000000e+00
1.000000000000000021e-02 9.944049866234848656e-01 -1.016287432778381739e+00 4.383691280475906504e-01 -3.052547474836932451e-01 2.516274949431122898e-03 -2.256312207729086958e-02 0.000000000000000000e+00 0.000000000000000000e+00 0.000000000000000000e+00
1.000000000000000021e-02 1.014938004521671155e+00 1.561401484130201744e+00 -7.871725509232413431e-01 8.883381394542472220e-01 2.133116513152093052e+00 4.133106045676510076e-01 0.000000000000000000e+00 0.000000000000000000e+00 0.000000000000000000e+00
1.000000000000000021e-02 -1.016490934743224717e+00 9.254220709940103040e-01 5.915094759320039808e-01 -1.447571597457176562e+00 1.628426473437859512e-01 9.445154327575078224e-01 0.000000000000000000e+00 0.000000000000000000e+00 0.000000000000000000e+00
1.000000000000000021e-02 2.931415672015771912e-01 -6.658223578475388482e-01 -1.617695873368919735e+00 8.845890182946105629e-01 -9.449071505391076764e-01 3.721815599239766681e-01 0.000000000000000000e+00 0.000000000000000000e+00 0.000000000000000000e+00
1.000000000000000021e-02 4.030700791357444968e-01 -2.515000769290401728e+00 1.097449715750761223e-01 -3.661413971997581340e-01 -9.375557599482078341e-01 -9.732741667212342629e-02 0.000000000000000000e+00 0.000000000000000000e+00 0.000000000000000000e+00
1.000000000000000021e-02 -4.195639261747102777e-01 7.946716641277836723e-01 5.458053534989223410e-01 -1.192428708925765204e-02 -1.164312882711793229e-02 2.700196072443271422e+00 0.000000000000000000e+00 0.000000000000000000e+00 0.000000000000000000e+00
1.000000000000000021e-02 -1.628966719031600174e+00 -7.099473649447134438e-01 -3.848538657391898377e-01 1.339076858789745722e-02 2.636746912149894873e-01 2.083635231559675671e-01 0.000000000000000000e+00 0.000000000000000000e+00 0.000000000000000000e+00
1.000000000000000021e-02 -6.671536006056485446e-01 -3.227545194724670830e-01 1.950454041173644015e-01 -1.853217911992226519e-01 -1.331255532363289362e-01 -4.847035018403382800e-01 0.000000000000000000e+00 0.000000000000000000e+00 0.000000000000000000e+00
1.000000000000000021e-02 -2.956135460302558582e-01 -4.251807016055648980e-02 -1.372369153381565399e+00 5.956715325669499350e-01 4.578667639168736425e-01 1.287117223314740322e+00 0.000000000000000000e+00 0.000000000000000000e+00 0.000000000000000000e+00
1.000000000000000021e-02 -5.884998692238724294e-01 -1.179701187342419910e+00 -3.881541896550034232e-01 -9.441400683350060774e-01 -1.546312763838013637e-01 -1.067073457485424370e+00 0.000000000000000000e+00 0.000000000000000000e+00 0.000000000000000000e+00
1.000000000000000021e-02 1.189983847623173885e+00 -3.318576185515572652e-01 -4.892267865941061222e-01 2.828476680825551259e-01 6.497791605903693313e-01 9.424875537744897835e-01 0.000000000000000000e+00 0.000000000000000000e+00 0.000000000000000000e+00
1.000000000000000021e-02 -2.103946630461362433e-01 2.401409482377712956e-01 1.057685426141084378e-01 3.751261664599336298e-01 -1.946706506714968921e+00 -1.548706254583875452e+00 0.000000000000000000e+00 0.000000000000000000e+00 0.000000000000000000e+00
1.000000000000000021e-02 -1.904664705067887487e-01 4.403095872281324041e-01 5.689139429596119513e-01 1.513598927369270430e-01 1.176326484380884295e-02 1.200744357339009971e+00 0.000000000000000000e+00 0.000000000000000000e+00 0.000000000000000000e+00
1.000000000000000021e-02 8.678539622832435185e-01 4.584126858252855485e-01 6.216342169044816179e-01 -4.797032596594864584e-01 1.314996906673925325e-01 -2.040468794298385014e+00 0.000000000000000000e+00 0.000000000000000000e+00 0.000000000000000000e+00
1.000000000000000021e-02 8.175527574824194010e-01 3.331258821766409084e-01 1.276009588525798710e+00 -2.698186234435876463e-01 -9.851768245566594473e-01 3.233099613741399758e-01 0.000000000000000000e+00 0.000000000000000000e+00 0.000000000000000000e+00
1.000000000000000021e-02 -1.800243155969127429e+00 1.152314453374217118e+00 5.735957666897918417e-01 1.570590522964270486e+00 8.580385895289454057e-01 -2.677507637463198420e-01 0.000000000000000000e+00 0.000000000000000000e+00 0.000000000000000000e+00
1.000000000000000021e-02 7.543408088782247445e-01 7.959699522353649304e-01 1.033237859987569049e-02 1.692765948701806800e-01 1.041702232693044738e-01 -1.507666088950033956e+00 0.000000000000000000e+00 0.000000000000000000e+00 0.000000000000000000e+00
1.000000000000000021e-02 4.745158811315852709e-02 -8.855242227454669379e-01 -1.152966327827272819e+00 -1.486766016823879877e+00 -8.179853421910521227e-03 -5.355338443449874503e-02 0.000000000000000000e+00 0.000000000000000000e+00 0.000000000000000000e+00
1.000000000000000021e-02 5.419193006178310013e-01 -2.215023501956378538e-01 -5.019277384344614790e-01 1.574465697982646128e+00 2.775283826855297620e-01 -1.887767824689268625e+00 0.000000000000000000e+00 0.000000000000000000e+00 0.000000000000000000e+00
1.000000000000000021e-02 1.081317563039494167e-01 -1.106070533364659658e+00 -2.246917678264075846e+00 -1.162292097866604923e+00 -1.120196500383370042e+00 -3.529776451140475002e-01 0.000000000000000000e+00 0.000000000000000000e+00 0.000000000000000000e+00
1.000000000000000021e-02 1.032657278654454336e+00 -1.853802959687552709e-01 1.917560278042906186e+00 -4.611219125163334431e-01 -5.549658137318805862e-01 -8.449271024659251728e-01 0.000000000000000000e+00 0.000000000000000000e+00 0.000000000000000000e+00
1.000000000000000021e-02 7.793640525486744686e-01 -1.333430784638178324e+00 -7.147036738377335885e-01 -6.460924447820501904e-01 1.095471318310060616e+00 7.082938635378907000e-01 0.000000000000000000e+00 0.000000000000000000e+00 0.000000000000000000e+00
1.000000000000000021e-02 2.196830964683769150e+00 -1.610586222982698157e+00 4.911896124396045726e-01 2.550762015317572518e-01 4.200030798253779341e-01 -1.348532623310662593e-01 0.000000000000000000e+00 0.000000000000000000e+00 0.000000000000000000e+00
1.000000000000000021e-02 7.828078015303227000e-01 1.619301639377833890e+00 1.076078876141139729e+00 8.667789685891651441e-01 4.718688670102029747e-01 3.847783021550763016e-01 0.000000000000000000e+00 0.000000000000000000e+00 0.000000000000000000e+00
1.000000000000000021e-02 -1.068253797939382466e+00 4.128757767453444805e-01 2.884108866585212150e-01 2.062216195611506819e+00 -6.842386949908885185e-01 7.584411359366155514e-01 0.000000000000000000e+00 0.000000000000000000e+00 0.000000000000000000e+00
1.000000000000000021e-02 1.327950654579729717e+00 -1.186508597642021101e+00 -1.538197985333485729e+00 4.679784631237859371e-01 -1.048303391878647739e+00 -1.909616292200862764e-01 0.000000000000000000e+00 0.000000000000000000e+00 0.000000000000000000e+00
1.000000000000000021e-02 -1.377909285057559996e-01 -4.040536873656920269e-01 -7.985863672961993065e-02 4.117930457531684407e-01 4.099519992626958209e-01 4.366459855387112010e-01 0.000000000000000000e+00 0.000000000000000000e+00 0.000000000000000000e+00
1.000000000000000021e-02 1.382334864329696655e+00 -1.516272941364102955e+00 -1.175964049386740928e+00 2.592345356450053151e-01 1.057196112013180533e+00 1.243297072646501800e+00 0.000000000000000000e+00 0.000000000000000000e+00 0.000000000000000000e+00
1.000000000000000021e-02 6.529564276448946991e-01 1.543436633271985103e+00 2.152534847006890573e+00 5.412660082186858679e-01 -2.467103188282857129e+00 -1.035885517375650711e+00 0.000000000000000000e+00 0.000000000000000000e+00 0.000000000000000000e+00
1.000000000000000021e-02 5.052865134746200582e-01 -2.100875243183975283e-01 6.803948482966792888e-01 -1.475155780236721004e+00 -7.435597933392483760e-01 -7.104270341518514886e-01 0.000000000000000000e+00 0.000000000000000000e+00 0.000000000000000000e+00
1.000000000000000021e-02 7.000032770631782197e-01 -3.644770549559737671e-01 -3.477396069314053206e-01 6.308472546164012318e-01 2.799211786468407959e-01 -1.111637110932742090e+00 0.000000000000000000e+00 0.000000000000000000e+00 0.000000000000000000e+00
1.000000000000000021e-02 -3.988385901016246182e-02 2.843697217389422605e-01 3.737623234148965135e-01 -3.519926586819058234e-01 3.688287194578452333e-01 -7.110655647903619814e-01 0.000000000000000000e+00 0.000000000000000000e+00 0.000000000000000000e+00
1.000000000000000021e-02 4.678324572064321840e-01 8.412466790136416961e-01 1.488834315851205847e+00 5.295416279688932581e-01 -1.455358957121443364e+00 1.863799994333688315e-02 0.000000000000000000e+00 0.000000000000000000e+00 0.000000000000000000e+00
1.000000000000000021e-02 4.790032071621166399e-01 1.167436753330123089e+00 -7.516702095392496785e-02 -1.273430989483763376e-02 9.213313799610181043e-01 1.214808863696079877e+00 0.000000000000000000e+00 0.000000000000000000e+00 0.000000000000000000e+00
1.000000000000000021e-02 -2.053367326986367480e+00 1.307210481650422640e+00 -1.088639526357171539e+00 6.801339746389304386e-01 1.071972150313623695e-01 8.674703451700788159e-01 0.000000000000000000e+00 0.000000000000000000e+00 0.000000000000000000e+00
1.000000000000000021e-02 8.202890017812782819e-01 7.198688533980476256e-01 -2.138763292894244328e-01 -3.456507948601276192e-01 -1.693813786999106341e+00 -3.276797760390246506e-01 0.000000000000000000e+00 0.000000000000000000e+00 0.000000000000000000e+00
1.000000000000000021e-02 9.949574689317034482e-01 4.944804795437738321e-01 -6.896465040484377473e-01 -5.586730595107948227e-01 -1.727217812247497486e+00 1.392818806241007623e+00 0.000000000000000000e+00 0.000000000000000000e+00 0.000000000000000000e+00
1.000000000000000021e-02 1.741827279036000931e-01 -1.411888367511577314e-01 5.974760720870531117e-01 -2.806575470611474277e-01 -8.562316717306084346e-02 -1.101468268596587308e+00 0.000000000000000000e+00 0.000000000000000000e+00 0.000000000000000000e+00
1.000000000000000021e-02 -1.137524321301795760e-01 -4.082109601290466738e-01 5.559767067085775727e-01 6.081568438498874407e-01 -1.286185215676771465e+00 -4.597956200163956786e-01 0.000000000000000000e+00 0.000000000000000000e+00 0.000000000000000000e+00
1.000000000000000021e-02 7.405358920567427505e-01 1.128032863239767813e+00 -6.677833605763490166e-01 9.171041271648771032e-01 1.602541763803290387e+00 6.946428518917366901e-01 0.000000000000000000e+00 0.000000000000000000e+00 0.000000000000000000e+00
1.000000000000000021e-02 5.962653543615348273e-01 -7.532767617732395449e-01 3.097736527906846948e-01 2.694214571832559413e-01 -1.354924689186675302e+00 4.096467517485496979e-01 0.000000000000000000e+00 0.000000000000000000e+00 0.000000000000000000e+00
1.000000000000000021e-02 -4.388174654238654049e-01 1.702543816422007028e+00 1.092978570252788550e+00 1.136792887421154974e-03 -6.053853773261554938e-01 -7.878634174361838216e-01 0.000000000000000000e+00 0.000000000000000000e+00 0.000000000000000000e+00
1.000000000000000021e-02 -5.907355461134813357e-01 3.920429968408063459e-01 1.851975129566826084e+00 -5.418710066605338938e-01 1.404233270316969318e+00 2.499851499836724944e+00 0.000000000000000000e+00 0.000000000000000000e+00 0.000000000000000000e+00
1.000000000000000021e-02 -3.314230424754526783e-01 -7.707538220522905936e-01 -1.846290567156241069e+00 -4.690030934602359980e-02 -1.005233575351821562e+00 1.796165065437951069e+00 0.000000000000000000e+00 0.000000000000000000e+00 0.000000000000000000e+00
1.000000000000000021e-02 -2.481708871432152241e-01 -1.310772160533710817e+00 -4.312624672580449015e-01 -3.797566533649492371e-01 2.532929783219070030e-01 -1.695384313198513848e-01 0.000000000000000000e+00 0.000000000000000000e+00 0.000000000000000000e+00
1.000000000000000021e-02 -6.206203919807704583e-01 -3.268488336506218950e-01 -1.882633669680733091e+00 2.779752055503075248e-01 1.264639604168417142e-01 -1.018974974815401557e+00 0.000000000000000000e+00 0.000000000000000000e+00 0.000000000000000000e+00
1.000000000000000021e-02 5.060517172439995548e-01 3.517285426997839859e-01 -1.005837169009258236e+00 6.394708586089429270e-01 5.608356941546069896e-01 3.175613512599865240e-01 0.000000000000000000e+00 0.000000000000000000e+00 0.000000000000000000e+00
1.000000000000000021e-02 -1.580047757909629480e+00 4.100858160024656307e-01 2.858832654143784735e-01 2.272522628650735843e+00 1.470883923361687717e+00 4.181716715705012799e-01 0.000000000000000000e+00 0.000000000000000000e+00 0.000000000000000000e+00
1.000000000000000021e-02 9.177946767726232746e-01 2.333696425362220828e-01 4.433767984295047260e-01 1.193466287364650380e-01 1.928679017222443060e+00 4.709906849602263912e-01 0.000000000000000000e+00 0.000000000000000000e+00 0.000000000000000000e+00
1.000000000000000021e-02 1.298992179103120481e+00 -4.802066683092064969e-01 1.024907138312851490e-01 -1.580426091910360209e-01 1.471554608306976597e+00 2.076345776410398747e-01 0.000000000000000000e+00 0.000000000000000000e+00 0.000000000000000000e+00
1.000000000000000021e-02 -4.734226054265540662e-01 -2.486845188764910120e-01 -1.100649345059182105e+00 4.566375596409465443e-01 7.872777121563760971e-01 6.919133208405962021e-01 0.000000000000000000e+00 0.000000000000000000e+00 0.000000000000000000e+00
1.000000000000000021e-02 -3.081963293039256535e-01 -5.962240960137403789e-01 -1.322919372689654038e-01 7.170465796586644736e-01 -7.830820825892462755e-01 1.482083968849251532e+00 0.000000000000000000e+00 0.000000000000000000e+00 0.000000000000000000e+00
1.000000000000000021e-02 -9.654254907257946439e-01 -1.121488262141514980e+00 1.249182314466074972e+00 1.785110032090234222e+00 2.481352579116173906e+00 -3.177203959277895007e-01 0.000000000000000000e+00 0.000000000000000000e+00 0.000000000000000000e+00
1.000000000000000021e-02 -1.250573816916351166e+00 -6.701698847109229806e-01 6.949648997175876808e-01 1.250094492528736057e+00 -1.309993386770602897e-01 -5.150554854722459996e-01 0.000000000000000000e+00 0.000000000000000000e+00 0.000000000000000000e+00
1.000000000000000021e-02 4.019180303892406214e-01 -4.341478335889598084e-01 -8.643726737938266513e-01 -2.751539259997863862e-01 1.052234289273558943e-01 -2.741727952736932483e+00 0.000000000000000000e+00 0.000000000000000000e+00 0.000000000000000000e+00
1.000000000000000021e-02 -5.708666901253152126e-01 8.926572477218029655e-02 -5.190039890755321350e-01 -6.749530400585829204e-01 -1.806195697834549752e-01 1.777877613792419709e+00 0.000000000000000000e+00 0.000000000000000000e+00 0.000000000000000000e+00
1.000000000000000021e-02 2.263381365821527935e-01 -8.620829648452756899e-01 -1.192547923147759814e+00 -1.421514576522901807e+00 1.491350213468411123e+00 -3.902306411520180540e-01 0.000000000000000000e+00 0.000000000000000000e+00 0.000000000000000000e+00
1.000000000000000021e-02 2.014194913279052368e-01 -2.053906759234604695e-01 -1.466295835699845895e+00 1.782610323955112763e-01 3.393236143380850556e-01 -6.754058968908583926e-01 0.000000000000000000e+00 0.000000000000000000e+00 0.000000000000000000e+00
1.000000000000000021e-02 -1.113151502796008580e-01 -2.503556891514970850e-01 -1.678483060196437338e+00 -6.266202154888760312e-01 1.849097150985955063e+00 -1.436834559559777569e+00 0.000000000000000000e+00 0.000000000000000000e+00 0.000000000000000000e+00
1.000000000000000021e-02 3.321354064153945740e-01 -1.596576479452904263e+00 -4.131963628651322273e-01 -1.889744696468415863e-01 -6.801756075475647867e-01 2.702889518451619288e+00 0.000000000000000000e+00 0.000000000000000000e+00 0.000000000000000000e+00
1.000000000000000021e-02 1.771267260586172565e+00 -1.828621317141349900e+00 -1.141400796034191568e-02 2.310243658780120612e-01 6.137494504881110258e-01 -1.626335700822623132e-01 0.000000000000000000e+00 0.000000000000000000e+00 0.000000000000000000e+00
1.000000000000000021e-02 1.743056429564694865e+00 8.910863486270700351e-01 -1.099103157768548167e+00 1.667732658726160944e+00 -1.054479830316950584e-01 4.590214175269871077e-01 0.000000000000000000e+00 0.000000000000000000e+00 0.000000000000000000e+00
1.000000000000000021e-02 -7.506810174950741266e-02 -4.265637482201633524e-01 3.770506933989060672e-01 3.144056821288495396e+00 -1.292537785779535930e+00 1.798080323545668158e+00 0.000000000000000000e+00 0.000000000000000000e+00 0.000000000000000000e+00
1.000000000000000021e-02 -1.190611424221617476e+00 -9.203217266501353411e-01 8.298874252159158527e-01 -1.109317404573045701e-01 8.555966074785530395e-01 -5.648990349752945894e-01 0.000000000000000000e+00 0.000000000000000000e+00 0.000000000000000000e+00
1.000000000000000021e-02 -1.067635170247804993e-01 5.803980204838176116e-01 7.707762304602502890e-02 -1.499877984681015075e+00 6.247923727694343343e-01 1.113961758433619220e+00 0.000000000000000000e+00 0.000000000000000000e+00 0.000000000000000000e+00
1.000000000000000021e-02 1.084294955782445502e+00 -1.125651428254585307e+00 -9.551743184270627962e-03 1.349077647092215226e+00 1.858488832529003210e+00 -1.367681060215288902e+00 0.000000000000000000e+00 0.000000000000000000e+00 0.000000000000000000e+00
1.000000000000000021e-02 -1.356521922675171521e-01 1.610993654369428318e+00 -4.053840795956494825e-01 1.551774630618957818e-01 4.748502630975219296e-01 -1.346644530656597727e+00 0.000000000000000000e+00 0.000000000000000000e+00 0.000000000000000000e+00
1.000000000000000021e-02 1.856268093857747215e-01 8.187072270212117919e-01 7.688058199470030329e-01 -1.516852413086203333e+00 7.230734357158520309e-01 1.568744114404587497e+00 0.000000000000000000e+00 0.000000000000000000e+00 0.000000000000000000e+00
1.000000000000000021e-02 1.828815469007978312e+00 -6.471845856628015703e-01 -1.738088893833374726e+00 -1.033662213759694470e+00 -1.316494423710293349e+00 3.040536350849405434e-01 0.000000000000000000e+00 0.000000000000000000e+00 0.000000000000000000e+00
1.000000000000000021e-02 -6.083496258230041143e-01 2.487880271286399200e-02 -1.093602552034149911e+00 2.257671609277427105e-01 7.243971391579084873e-01 1.732599768975734200e+00 0.000000000000000000e+00 0.000000000000000000e+00 0.000000000000000000e+00
1.000000000000000021e-02 -1.098278869808511304e+00 1.194487105394180348e+00 3.431044922751632642e-01 -8.606369148891495069e-01 -1.094133519361975226e+00 7.098191544400158648e-01 0.000000000000000000e+00 0.000000000000000000e+00 0.000000000000000000e+00
1.000000000000000021e-02 4.019428178530735640e-01 3.749176418335865568e-01 -1.448899645569022843e+00 -1.882469562024367826e-01 2.046375758629550567e+00 -3.427532766711818835e-01 0.000000000000000000e+00 0.000000000000000000e+00 0.000000000000000000e+00
1.000000000000000021e-02 -1.740375916262805467e-01 -1.796676116210865481e-01 1.179634227931000812e+00 3.184361382785499961e-01 5.147562433726555753e-01 -8.394432528840031771e-02 0.000000000000000000e+00 0.000000000000000000e+00 0.000000000000000000e+00
1.000000000000000021e-02 3.317783090036254268e-01 -1.855186783246286220e-01 3.522493403310201221e-01 -6.106195462523127393e-01 7.607994101894017813e-01 -5.033252142471622559e-01 0.000000000000000000e+00 0.000000000000000000e+00 0.000000000000000000e+00
1.000000000000000021e-02 -2.825662912131913229e-01 -1.048405208447604764e+00 1.483230099123517887e+00 -1.131490596670447768e-01 1.007156762103141423e+00 1.600640775880495248e+00 0.000000000000000000e+00 0.000000000000000000e+00 0.000000000000000000e+00
1.000000000000000021e-02 -1.398400829478152918e+00 -7.154617601961323903e-01 -8.591354106636646115e-01 1.632942482680229235e+00 1.160284201948381000e+00 5.344668861237567015e-02 0.000000000000000000e+00 0.000000000000000000e+00 0.000000000000000000e+00
1.000000000000000021e-02 -1.010147770948046420e+00 -1.933429455400974273e-01 -5.557199544182606088e-01 9.150643070659592038e-01 1.376247703600950389e+00 -4.708162147527356067e-01 0.000000000000000000e+00 0.000000000000000000e+00 0.000000000000000000e+00
1.000000000000000021e-02 -5.442106503763537440e-01 4.717610409878240096e-01 8.610246265410984035e-02 1.918117465880235351e+00 -1.035275109291973417e+00 -6.605275038738404048e-01 0.000000000000000000e+00 0.000000000000000000e+00 0.000000000000000000e+00
1.000000000000000021e-02 -1.733548806051608882e+00 -3.389946104909640212e+00 5.638059523873232282e-01 7.482413482553503803e-01 -1.162868812468571322e+00 1.460301830914527921e+00 0.000000000000000000e+00 0.000000000000000000e+00 0.000000000000000000e+00
1.000000000000000021e-02 -4.379332571288187537e-01 4.588821509909162266e-01 -4.560929725762634390e-02 3.543690952049448339e-02 -1.385173605340220604e+00 -1.038401982147697744e+00 0.000000000000000000e+00 0.000000000000000000e+00 0.000000000000000000e+00
1.000000000000000021e-02 -3.358375301177104477e-01 -1.104655925367984626e+00 -1.036505472674894568e+00 -1.079824911237154073e+00 2.400469479181142951e+00 5.882206487555261543e-01 0.000000000000000000e+00 0.000000000000000000e+00 0.000000000000000000e+00
1.000000000000000021e-02 -1.135849011915334605e+00 -8.366156231810044641e-01 2.076616838947320076e+00 2.486952985021731732e-01 -1.631408599557739869e-01 2.660551319515220281e-01 0.000000000000000000e+00 0.000000000000000000e+00 0.000000000000000000e+00
1.000000000000000021e-02 -3.628461421888876659e-01 1.372960254715598072e-01 -7.521151403636072708e-01 2.716672488373346739e-01 -5.918834553801607251e-02 1.108840953173701321e-01 0.000000000000000000e+00 0.000000000000000000e+00 0.000000000000000000e+00
1.000000000000000021e-02 -1.751948714005005847e+00 -1.266453952868445088e+00 2.773847739866243667e-01 1.014204653405975376e-01 -5.807694072394939400e-02 -1.378321869104462749e+00 0.000000000000000000e+00 0.000000000000000000e+00 0.000000000000000000e+00
1.000000000000000021e-02 -7.771585209415636797e-01 -8.589784347482516402e-01 6.801164487419141258e-01 4.804092713033104867e-02 -1.780471432384348240e+00 1.705007915192978951e-01 0.000000000000000000e+00 0.000000000000000000e+00 0.000000000000000000e+00
1.000000000000000021e-02 -2.315715165593721370e+00 -3.614774356153263035e-01 -4.277358566449565580e-02 -1.263149424818901689e+00 -6.682267998160014433e-02 1.726213313426471441e+00 0.000000000000000000e+00 0.000000000000000000e+00 0.000000000000000000e+00
1.000000000000000021e-02 1.768586652409707416e-01 5.829019160138843025e-01 4.402870812789016486e-01 -1.732972520297711316e+00 -1.086523454535299527e+00 -2.258675784120250107e-01 0.000000000000000000e+00 0.000000000000000000e+00 0.000000000000000000e+00
1.000000000000000021e-02 3.324868840783208879e-01 -4.726580539053715224e-01 9.891973569096375318e-02 4.231823369543093183e-04 -1.160747910405204308e-01 -1.036239838909582156e+00 0.000000000000000000e+00 0.000000000000000000e+00 0.000000000000000000e+00
1.000000000000000021e-02 3.855002455634737868e-01 9.057025284971537138e-01 4.915138412448552541e-01 6.670586038150644326e-01 -1.449352997303078316e+00 -7.131648572858949597e-01 0.000000000000000000e+00 0.000000000000000000e+00 0.000000000000000000e+00
1.000000000000000021e-02 3.317142621589168061e-01 6.091288913365801028e-01 -5.193818105803218454e-01 -5.860118563200892305e-01 -8.630201719738411770e-01 -5.921090899337471125e-01 0.000000000000000000e+00 0.000000000000000000e+00 0.000000000000000000e+00
1.000000000000000021e-02 1.654009634539341356e+00 1.486468886862122973e+00 -7.673167733213379638e-01 -7.393432192461883989e-01 1.251718500837920023e-01 9.658166282553355408e-01 0.000000000000000000e+00 0.000000000000000000e+00 0.000000000000000000e+00
1.000000000000000021e-02 1.419159323056594646e-01 1.777449659233071300e-01 -1.052784470885684165e+00 2.945622121111148850e-01 -4.543322105762283569e-01 -2.700936772231811167e-01 0.000000000000000000e+00 0.000000000000000000e+00 0.000000000000000000e+00
1.000000000000000021e-02 -1.394692721519099066e-01 1.139644128654871524e+00 1.661076509794297440e+00 4.782439700323704024e-01 -2.568060037821359720e-01 -1.845846839202330558e-01 0.000000000000000000e+00 0.000000000000000000e+00 0.000000000000000000e+00
1.000000000000000021e-02 -2.397181955887660587e-01 4.629495834293698153e-02 -1.169697306465558917e+00 5.407990574061064537e-01 -4.255149768460342319e-01 -1.196280583333559466e+00 0.000000000000000000e+00 0.000000000000000000e+00 0.000000000000000000e+00
1.000000000000000021e-02 -2.421747385682710557e-02 5.818183694702427911e-01 -9.732853490279317343e-01 -4.139893268213710315e-02 -2.600998714590967431e-01 -8.294531105287328288e-01 0.000000000000000000e+00 0.000000000000000000e+00 0.000000000000000000e+00
1.000000000000000021e-02 -1.035045983285504123e+00 1.409436705446011295e+00 1.673413863468053986e-01 2.100449415460977409e+00 -3.912258970418699411e-01 -2.339717036622885882e+00 0.000000000000000000e+00 0.000000000000000000e+00 0.000000000000000000e+00
1.000000000000000021e-02 8.509529267961047916e-01 -4.045991261480491041e-01 1.237948981502981827e+00 2.527913264907592494e-01 -1.426152084818635091e+00 8.867882451904700591e-01 0.000000000000000000e+00 0.000000000000000000e+00 0.000000000000000000e+00
1.000000000000000021e-02 7.684589126344645860e-02 -1.649361681381598776e+00 4.690967759496175171e-01 -3.033464000904512181e-01 -2.352796001374518331e-01 -6.432782453999486005e-01 0.000000000000000000e+00 0.000000000000000000e+00 0.000000000000000000e+00
1.000000000000000021e-02 -2.617014916008488790e-01 -7.303600135402543714e-03 -1.237774965435528340e+00 3.174825199388725538e-01 5.971548570737527095e-01 -6.026375522800149209e-01 0.000000000000000000e+00 0.000000000000000000e+00 0.000000000000000000e+00
1.000000000000000021e-02 -2.318377140452931584e-01 1.213708636467419000e+00 -1.849739367217841102e-01 -2.835442455256381722e-01 -1.338266371070888638e-01 7.705380655143821977e-01 0.000000000000000000e+00 0.000000000000000000e+00 0.000000000000000000e+00
1.000000000000000021e-02 -4.998314052146252684e-01 9.300716228171153066e-01 -7.877199405371548835e-01 3.848536381495652470e-01 -8.339818829418123025e-01 -8.243647591529701391e-02 0.000000000000000000e+00 0.000000000000000000e+00 0.000000000000000000e+00
1.000000000000000021e-02 2.403329873044841025e-01 -3.051879552758400838e-01 4.813184034159441183e-01 3.619626787092675158e-01 -1.283889690899739366e-01 -2.550606983482904599e+00 0.000000000000000000e+00 0.000000000000000000e+00 0.000000000000000000e+00
1.000000000000000021e-02 1.710708452694960524e+00 -4.630770852040259622e-01 -1.774932750211338561e+00 -7.117904520822530001e-01 -1.055808981238411492e+00 2.240380070433184656e+00 0.000000000000000000e+00 0.000000000000000000e+00 0.000000000000000000e+00
1.000000000000000021e-02 -9.173778019703674458e-01 1.493361462533327133e+00 -5.324859726354089773e-01 2.145540786833835811e-01 -1.475687037665046608e-02 -2.473912034242211344e-01 0.000000000000000000e+00 0.000000000000000000e+00 0.000000000000000000e+00
1.000000000000000021e-02 -1.658963436422766780e+00 -1.730790254664390737e+00 1.893323068643798734e+00 8.773871650183356907e-01 -3.399154342651401484e-01 1.239400029527063518e+00 0.000000000000000000e+00 0.000000000000000000e+00 0.000000000000000000e+00
1.000000000000000021e-02 -1.543669178453699109e+00 2.016288734475565059e-01 -8.548671244581879103e-01 -5.167450003888343080e-01 -1.866146067989859603e+00 2.101626023666338522e-03 0.000000000000000000e+00 0.000000000000000000e+00 0.000000000000000000e+00
1.000000000000000021e-02 -2.249813200596205043e+00 9.973431756683808214e-01 4.149485074022072895e-01 -1.518273151942714394e+00 -1.334881256128376270e+00 -1.711253283713759787e-01 0.000000000000000000e+00 0.000000000000000000e+00 0.000000000000000000e+00
1.000000000000000021e-02 5.129794458206687890e-01 -7.027290951356227611e-01 2.289423218057576037e-01 -2.940084951293707727e-01 1.289407601554930283e+00 -2.955713634570615311e-01 0.000000000000000000e+00 0.000000000000000000e+00 0.000000000000000000e+00
1.000000000000000021e-02 1.029148716757766896e-02 7.557701481530350041e-01 7.925945630001953734e-01 1.608966177525334773e+00 -3.424143839520126242e-01 -1.334550798385582215e+00 0.000000000000000000e+00 0.000000000000000000e+00 0.000000000000000000e+00
1.000000000000000021e-02 1.094927837334797927e+00 4.653362365000987544e-02 -1.730930237224875476e-02 1.163408707496840222e+00 1.496349342465258178e-02 -6.163820410008145068e-01 0.000000000000000000e+00 0.000000000000000000e+00 0.000000000000000000e+00
1.000000000000000021e-02 -3.185581762351690216e-01 -4.637909563881038033e-01 5.208757388701300561e-01 4.062983989134167362e-01 -1.112007172539998034e+00 7.153931624861504801e-01 0.000000000000000000e+00 0.000000000000000000e+00 0.000000000000000000e+00
1.000000000000000021e-02 1.077442384140039205e-01 -3.183481213793111497e-02 3.133505774303427943e-02 -9.766277284610446197e-01 8.075148847458681889e-01 -1.106905010577249188e-01 0.000000000000000000e+00 0.000000000000000000e+00 0.000000000000000000e+00
1.000000000000000021e-02 1.258185645301004518e+00 -3.262968694481414911e+00 -4.697865605663668620e-01 8.114122488741878358e-01 -1.559154029896064886e+00 -2.640469070150032183e-01 0.000000000000000000e+00 0.000000000000000000e+00 0.000000000000000000e+00
1.000000000000000021e-02 -5.247691269883876242e-01 1.352893672737198960e+00 -1.287268736239170597e+00 -1.640728135660656450e+00 -8.577162565746915268e-01 -1.058185760158691702e+00 0.000000000000000000e+00 0.000000000000000000e+00 0.000000000000000000e+00
1.000000000000000021e-02 -7.604246015201360231e-01 8.578461042891613042e-01 -2.994235262603098136e+00 -1.288075894540692712e+00 1.721652230982012588e+00 1.581829350152481328e-01 0.000000000000000000e+00 0.000000000000000000e+00 0.000000000000000000e+00
1.000000000000000021e-02 -8.968234572755392486e-01 -1.262784077544329087e+00 -1.395671110585377628e+00 -8.929711136352046497e-01 1.247637299012469780e+00 6.864642235134302828e-01 0.000000000000000000e+00 0.000000000000000000e+00 0.000000000000000000e+00
1.000000000000000021e-02 1.196941058583244955e+00 -4.380437173124044903e-01 -6.687253214610268115e-01 2.820201076228067816e+00 4.758887194568893197e-01 -1.369953387999632621e+00 0.000000000000000000e+00 0.000000000000000000e+00 0.000000000000000000e+00
1.000000000000000021e-02 3.949805620746813517e-01 -8.177578343589602117e-01 2.543483239837325272e-01 -2.294605881872401998e+00 -1.002732564704231777e-01 -4.336930952026036429e-02 0.000000000000000000e+00 0.000000000000000000e+00 0.000000000000000000e+00
1.000000000000000021e-02 8.377253896975656033e-01 -8.151624172334769325e-01 9.291361929193028280e-01 -4.900167227861887409e-01 7.812088818108591237e-01 6.479932960665022446e-01 0.000000000000000000e+00 0.000000000000000000e+00 0.000000000000000000e+00
1.000000000000000021e-02 4.921689713846775227e-01 -1.571703049787075424e+00 -2.840821476812796509e-01 -1.679160908031654076e+00 -3.229397740930270433e-01 4.722705320583008848e-01 0.000000000000000000e+00 0.000000000000000000e+00 0.000000000000000000e+00
1.000000000000000021e-02 8.981992043041245322e-02 -5.954546966063309910e-01 -5.258753961942589372e-01 -3.283226595320037910e-02 -1.042134077340451104e-01 1.467117223986627916e+00 0.000000000000000000e+00 0.000000000000000000e+00 0.000000000000000000e+00
1.000000000000000021e-02 -2.382870004711495238e+00 1.697589067528977314e-01 -3.928750273957097860e-01 8.548172802029481154e-01 1.520591323270082729e+00 -9.196581239230915417e-01 0.000000000000000000e+00 0.000000000000000000e+00 0.000000000000000000e+00
1.000000000000000021e-02 2.086141029939336811e-01 8.980690227191205910e-01 6.092486125142915210e-02 1.496021637280305683e+00 1.228868753360781163e-01 -1.503812454932255127e+00 0.000000000000000000e+00 0.000000000000000000e+00 0.000000000000000000e+00
1.000000000000000021e-02 1.506117137774796652e-02 2.047657399336285378e-01 -3.311208531156928370e-02 4.103013511332805341e-01 -6.183064474866029059e-01 7.300599614023033090e-02 0.000000000000000000e+00 0.000000000000000000e+00 0.000000000000000000e+00
1.000000000000000021e-02 -8.181966661384044714e-01 -5.140989422839146172e-01 2.250137394418679770e-01 -8.462539230245690325e-01 -2.239479012706286076e-01 -1.900493602275844240e-01 0.000000000000000000e+00 0.000000000000000000e+00 0.000000000000000000e+00
1.000000000000000021e-02 7.528371953962534335e-02 -4.714760474830148596e-01 -6.200230829612185524e-01 -1.425980003999670398e+00 -1.535574795124848846e+00 -9.599944370103981328e-03 0.000000000000000000e+00 0.000000000000000000e+00 0.000000000000000000e+00
1.000000000000000021e-02 -1.337443316763085477e+00 -2.985861899276607417e-02 1.008105244051927363e+00 1.099546891187822784e+00 4.525196975823040368e-01 1.201588566331102781e+00 0.000000000000000000e+00 0.000000000000000000e+00 0.000000000000000000e+00
1.000000000000000021e-02 4.713075891650468363e-01 -1.933547015065908981e-01 4.117882706563711498e-02 -1.792964847991792288e-01 6.293208902591964637e-01 -2.076528570284434494e+00 0.000000000000000000e+00 0.000000000000000000e+00 0.000000000000000000e+00
1.000000000000000021e-02 1.598229514212494262e+00 -7.894428506535527967e-02 6.123548730946706264e-01 -2.210177861101412233e+00 3.508048148467734495e-01 1.238305581946706591e+00 0.000000000000000000e+00 0.000000000000000000e+00 0.000000000000000000e+00
1.000000000000000021e-02 -2.235124967557112985e+00 -6.611785040232833754e-01 -1.260293887451218175e+00 1.234861236949318153e+00 -5.279681438712580110e-01 -5.932416660297739064e-01 0.000000000000000000e+00 0.000000000000000000e+00 0.000000000000000000e+00
1.000000000000000021e-02 -5.809549300966324603e-01 6.281653030698438611e-01 -1.020977161203003858e+00 1.229461295422404232e+00 1.751119320825942627e-01 -7.853004880256838627e-01 0.000000000000000000e+00 0.000000000000000000e+00 0.000000000000000000e+00
1.000000000000000021e-02 -6.664455299814777689e-01 -7.925040958815426917e-02 1.361270674541140258e+00 1.700198742204594771e+00 -1.489771032280429397e+00 -1.812304765975402354e+00 0.000000000000000000e+00 0.000000000000000000e+00 0.000000000000000000e+00
1.000000000000000021e-02 4.160364287527115179e-01 -2.139778050059901737e+00 2.600708302053496013e-01 7.768324853843914246e-01 -6.139459044759202344e-01 9.185536071533917379e-01 0.000000000000000000e+00 0.000000000000000000e+00 0.000000000000000000e+00
1.000000000000000021e-02 8.877257592131807540e-01 -6.642939889817267574e-01 -2.622794304674084045e-02 1.088695084131944046e+00 2.519201684457915702e-01 2.437150287583403629e-01 0.000000000000000000e+00 0.000000000000000000e+00 0.000000000000000000e+00
1.000000000000000021e-02 2.994200496814232726e-01 -1.359835417890128628e+00 3.853789115356272554e-01 4.710907166738715346e-01 5.857505109974130431e-01 -8.065805354477029177e-01 0.000000000000000000e+00 0.000000000000000000e+00 0.000000000000000000e+00
1.000000000000000021e-02 -7.729001411703599889e-01 3.299320514191129983e-02 4.366207504133850503e-01 4.607513935170722830e-01 -3.159031165487563020e-01 -4.979142797589717340e-01 0.000000000000000000e+00 0.000000000000000000e+00 0.000000000000000000e+00
1.000000000000000021e-02 1.497353883931263452e+00 2.683439081605929477e-01 -5.945537763382088281e-01 -2.151279246630030784e+00 1.400701755725963560e+00 -8.944637931484776816e-01 0.000000000000000000e+00 0.000000000000000000e+00 0.000000000000000000e+00
1.000000000000000021e-02 -9.473386183963662388e-01 1.761080778202453567e+00 6.000265185896095366e-01 -1.599572356417234387e+00 1.785973850971064536e+00 2.312771586866051721e-01 0.000000000000000000e+00 0.000000000000000000e+00 0.000000000000000000e+00
1.000000000000000021e-02 6.956370952333642554e-01 1.094616611300249343e+00 -1.318820091289102603e+00 -4.888075642405538268e-01 2.140301820732799787e-01 -9.115873189031196144e-01 0.000000000000000000e+00 0.000000000000000000e+00 0.000000000000000000e+00
1.000000000000000021e-02 2.816759361100266146e-01 1.228279026385386219e+00 -2.956544383122770014e-01 -1.290801408946721462e+00 -5.209687397172287904e-01 2.358252484411962335e-01 0.000000000000000000e+00 0.000000000000000000e+00 0.000000000000000000e+00
1.000000000000000021e-02 -8.019120532261873047e-01 8.926057113026071299e-01 6.810614193978890007e-01 -5.685355668303567755e-01 6.669387639363630882e-01 -2.989793912713054613e-01 0.000000000000000000e+00 0.000000000000000000e+00 0.000000000000000000e+00
1.000000000000000021e-02 -1.798675574511204411e+00 -7.689002157877894428e-02 -2.314446447569548648e-01 -2.342117907055523585e+00 8.190629889954815779e-01 -1.739535978033149632e+00 0.000000000000000000e+00 0.000000000000000000e+00 0.000000000000000000e+00
1.000000000000000021e-02 5.412580854245943596e-02 5.520981579828819763e-01 7.507183177166797394e-01 1.907364049449228549e+00 1.295295143349937339e+00 4.353375005607950654e-01 0.000000000000000000e+00 0.000000000000000000e+00 0.000000000000000000e+00
1.000000000000000021e-02 -8.593918402906783882e-01 4.149120779035173623e-01 2.293142364224066976e-01 -1.079126204306785741e+00 -1.055996227613427818e+00 -9.371420583103824420e-01 0.000000000000000000e+00 0.000000000000000000e+00 0.000000000000000000e+00
1.000000000000000021e-02 -1.202182589673858715e+00 -1.175821363272772535e+00 1.241580872515471112e+00 -1.091665154810113725e+00 8.562570481441401649e-01 8.230665343329396366e-02 0.000000000000000000e+00 0.000000000000000000e+00 0.000000000000000000e+00
1.000000000000000021e-02 1.742226742462280153e+00 1.424975460392275961e+00 -1.558476691560057859e-01 -5.826125029616586737e-01 -6.332120121390417689e-01 -9.197022761344497699e-02 0.000000000000000000e+00 0.000000000000000000e+00 0.000000000000000000e+00
1.000000000000000021e-02 9.605835606107367974e-01 -2.082407903211554334e+00 4.672409681537450510e-01 -1.002981501545497922e+00 -4.613990285103549138e-01 1.440535938370157920e+00 0.000000000000000000e+00 0.000000000000000000e+00 0.000000000000000000e+00
1.000000000000000021e-02 -4.952792709262301418e-01 -8.681225218487892414e-01 4.365947001920837955e-01 4.411701856401890054e-01 -8.726363057706718607e-01 -2.218335030062226654e+00 0.000000000000000000e+00 0.000000000000000000e+00 0.000000000000000000e+00
1.000000000000000021e-02 -1.008969818747786018e+00 -1.042321106647321027e+00 -2.811487288334672208e+00 -2.444648645185158564e+00 3.508659608855471679e-01 -1.378056141056162864e-01 0.000000000000000000e+00 0.000000000000000000e+00 0.000000000000000000e+00
1.000000000000000021e-02 -1.035554193240288523e+00 6.547206156876923810e-02 -6.057736690117512257e-01 2.586894791145165629e-01 -4.880873050796148416e-01 -2.340130222836080687e-01 0.000000000000000000e+00 0.000000000000000000e+00 0.000000000000000000e+00
1.000000000000000021e-02 -1.696967269882507123e+00 7.775155445090030648e-01 1.239008214280612918e+00 9.171131712870949082e-01 5.234948885449033362e-01 2.005422567685881230e+00 0.000000000000000000e+00 0.000000000000000000e+00 0.000000000000000000e+00
1.000000000000000021e-02 -1.440041378740241074e+00 3.327449514936187125e-01 6.020121145825941406e-02 8.875223156514964185e-01 -4.076436607617997532e-02 7.026449874545495078e-01 0.000000000000000000e+00 0.000000000000000000e+00 0.000000000000000000e+00
1.000000000000000021e-02 -2.192786605261521249e+00 -4.746441876350825095e-02 -7.106908199687099748e-01 -2.524256907449596632e+00 -4.438247078075480134e-01 6.773870687876781815e-01 0.000000000000000000e+00 0.000000000000000000e+00 0.000000000000000000e+00
1.000000000000000021e-02 -1.370083804277326900e+00 -1.407743073632359732e+00 1.501580787963961772e+00 -1.345360199103476484e+00 -1.073053224162534708e-01 -1.050271928974614744e+00 0.000000000000000000e+00 0.000000000000000000e+00 0.000000000000000000e+00
1.000000000000000021e-02 1.302800641087275890e+00 5.165361411988804718e-01 5.848751816500644685e-01 1.429890498132245558e+00 4.073421547734100701e-01 5.942909212687412790e-01 0.000000000000000000e+00 0.000000000000000000e+00 0.000000000000000000e+00
1.000000000000000021e-02 1.460359187450686491e+00 -9.689845519816544517e-01 1.365329246646014738e+00 -8.236095901902609207e-01 -4.306450161352575190e-01 5.475257368050009399e-01 0.000000000000000000e+00 0.000000000000000000e+00 0.000000000000000000e+00
1.000000000000000021e-02 1.806363986875432481e-01 1.164282017408874159e+00 -1.114969255206911702e+00 -6.573132647298222109e-01 5.157706937726856955e-01 -1.014768722340686713e+00 0.000000000000000000e+00 0.000000000000000000e+00 0.000000000000000000e+00
1.000000000000000021e-02 5.353743491146467637e-01 -1.089735628414670865e+00 -3.791384772502461864e-01 -1.811690279199271281e+00 1.505725302989846304e+00 7.862529014656478576e-01 0.000000000000000000e+00 0.000000000000000000e+00 0.000000000000000000e+00
1.000000000000000021e-02 8.565047592957488742e-01 -1.146890213850669138e+00 -3.964009741561413391e-01 -4.584424365496865272e-01 1.056025349273921332e+00 9.750546171658884820e-01 0.000000000000000000e+00 0.000000000000000000e+00 0.000000000000000000e+00
1.000000000000000021e-02 -1.897926347745168663e+00 8.418866456326088432e-01 -1.680248253887621848e-02 3.291972745072394568e-01 -2.232608225057653439e-01 -9.456412454538238865e-01 0.000000000000000000e+00 0.000000000000000000e+00 0.000000000000000000e+00
1.000000000000000021e-02 -3.971839294867268166e-01 4.149670234656700485e-01 -3.726628644196983142e-01 3.549932176237857173e-01 -1.151115284173427789e+00 -2.157936833437560153e+00 0.000000000000000000e+00 0.000000000000000000e+00 0.000000000000000000e+00
1.000000000000000021e-02 -5.535225281667749408e-01 1.507527486290898944e+00 -3.348402890505060570e-01 -1.216534991537925325e+00 -1.016981859053869564e-01 1.347920572059710387e-01 0.000000000000000000e+00 0.000000000000000000e+00 0.000000000000000000e+00
1.000000000000000021e-02 -1.029221244968324539e-01 1.442811257803617186e+00 -1.173721027043696630e+00 -4.254156310087872650e-01 7.326607239041430519e-01 3.020114787666546841e-01 0.000000000000000000e+00 0.000000000000000000e+00 0.000000000000000000e+00
1.000000000000000021e-02 -1.794299573042395790e-01 -1.542395008312476001e-01 -1.035620988799947684e+00 -5.610581428924645703e-03 1.961390346120590045e-01 -2.862716455301260066e+00 0.000000000000000000e+00 0.000000000000000000e+00 0.000000000000000000e+00
1.000000000000000021e-02 -4.205844512108242172e-01 -1.525140625317388254e+00 -5.267631321543218004e-01 -1.264173425917673121e+00 -1.946581062315826116e-01 -1.565673470916627119e+00 0.000000000000000000e+00 0.000000000000000000e+00 0.000000000000000000e+00
1.000000000000000021e-02 4.216304897521500061e-01 1.237733245139718719e+00 1.826685215717735455e-01 -6.970564641497725145e-01 1.198286646209596684e+00 2.910889935215138502e-01 0.000000000000000000e+00 0.000000000000000000e+00 0.000000000000000000e+00
1.000000000000000021e-02 1.710644496459427510e-01 -9.020116079541559140e-01 6.198129887850171160e-01 -2.718567238432771926e-01 2.793590916774968402e-01 -2.341955920073338637e-01 0.000000000000000000e+00 0.000000000000000000e+00 0.000000000000000000e+00
1.000000000000000021e-02 -6.406781683264066718e-01 -5.909364935208464287e-01 -9.073897097219719710e-01 -3.172717145676637318e-01 -8.225289528151324969e-01 -1.661217031761007545e-01 0.000000000000000000e+00 0.000000000000000000e+00 0.000000000000000000e+00
1.000000000000000021e-02 -1.366695849937171303e+00 -1.040080405158512189e+00 -1.489482167667193435e+00 5.810507213783892011e-01 -1.802313825582921414e+00 -2.130036423544561519e-01 0.000000000000000000e+00 0.000000000000000000e+00 0.000000000000000000e+00
1.000000000000000021e-02 4.720179707761428811e-01 -1.980013007341957287e+00 -1.040389003928254619e+00 7.619380242800868341e-01 -1.780425991106681927e-01 -5.819318999369502698e-01 0.000000000000000000e+00 0.000000000000000000e+00 0.000000000000000000e+00
1.000000000000000021e-02 -1.083084369789345969e+00 2.211192047269766814e+00 1.182115405786039464e+00 -1.908586897013845318e+00 1.338512828896637918e+00 -7.456826308505423162e-01 0.000000000000000000e+00 0.000000000000000000e+00 0.000000000000000000e+00
1.000000000000000021e-02 6.340784015974341159e-01 1.920912219910573038e+00 9.307395188436607958e-01 3.025355992593073418e-01 8.865998273487102344e-02 1.320055238395294595e-01 0.000000000000000000e+00 0.000000000000000000e+00 0.000000000000000000e+00
1.000000000000000021e-02 -1.031754689749762699e+00 1.514388867672292749e-01 2.059583594272129392e-01 -3.156840234230285924e-01 -2.285868688632579637e+00 3.233221573386685366e-02 0.000000000000000000e+00 0.000000000000000000e+00 0.000000000000000000e+00
1.000000000000000021e-02 2.226711804710174436e-01 3.483180740809474485e-01 2.130143855567009137e+00 -2.422086545773215194e-01 -1.852744576098161788e+00 3.023362505159972735e-01 0.000000000000000000e+00 0.000000000000000000e+00 0.000000000000000000e+00
1.000000000000000021e-02 -1.702637829468791608e+00 -8.516577914250315073e-01 3.108523142960379904e-01 -9.164163632081657740e-01 2.343184382320801298e-02 8.475416055521446668e-02 0.000000000000000000e+00 0.000000000000000000e+00 0.000000000000000000e+00
1.000000000000000021e-02 5.624428637015175259e-01 5.185093595554642887e-01 9.531790172534515548e-01 2.266139437729524919e-01 2.273383944304239623e+00 -4.331238560475562244e-02 0.000000000000000000e+00 0.000000000000000000e+00 0.000000000000000000e+00
1.000000000000000021e-02 -2.035894970992497555e-01 7.170794306907413151e-01 -1.498267454401993160e+00 9.859334157218098138e-01 -2.988095510029132318e-01 9.282919950973266277e-01 0.000000000000000000e+00 0.000000000000000000e+00 0.000000000000000000e+00
1.000000000000000021e-02 -1.452621112262703074e-01 -1.278260009267435438e+00 1.348346987227432958e+00 -6.805733043032855534e-01 -2.479095438591262024e+00 4.404507893260984908e-01 0.000000000000000000e+00 0.000000000000000000e+00 0.000000000000000000e+00
1.000000000000000021e-02 -1.751048621709051289e+00 -1.130306213667997994e+00 -5.404684251258621286e-01 -2.073007276751241135e-01 1.627356775011881584e+00 7.165459075182970539e-01 0.000000000000000000e+00 0.000000000000000000e+00 0.000000000000000000e+00
1.000000000000000021e-02 -1.220359463723285215e-01 6.834083683456676495e-02 -3.831781727235556989e-01 -8.389930055525912644e-01 -3.698108306469156670e-01 4.265231919922338744e-01 0.000000000000000000e+00 0.000000000000000000e+00 0.000000000000000000e+00
1.000000000000000021e-02 1.184647497528720006e+00 5.497252138222920026e-01 1.472305232952432430e+00 -1.444511278965542322e+00 -3.688041284623085891e-01 7.495577368205972313e-01 0.000000000000000000e+00 0.000000000000000000e+00 0.000000000000000000e+00
1.000000000000000021e-02 2.334832451164967904e-01 -8.010575700687738721e-02 -7.857028160714830678e-01 7.671606372553400055e-01 -8.876866560393203986e-01 -1.163791173237187060e+00 0.000000000000000000e+00 0.000000000000000000e+00 0.000000000000000000e+00
1.000000000000000021e-02 1.177678192306711003e+00 -7.670825614284918492e-01 1.062359336806621313e+00 1.334371295014131986e+00 3.463625888588402479e-01 1.766201160938511094e+00 0.000000000000000000e+00 0.000000000000000000e+00 0.000000000000000000e+00
1.000000000000000021e-02 2.895699313244265993e-01 -9.351867047392612431e-01 6.752221020154834941e-01 8.041049089816363349e-01 -3.636672679196290003e-01 -4.364966116386597150e-01 0.000000000000000000e+00 0.000000000000000000e+00 0.000000000000000000e+00
1.000000000000000021e-02 -1.511491908711422472e+00 -1.819922466459819255e+00 -8.095897534301801368e-01 -3.236449807232161247e-01 3.050948483975199910e-01 8.464961084395464797e-01 0.000000000000000000e+00 0.000000000000000000e+00 0.000000000000000000e+00
1.000000000000000021e-02 1.270297659355939635e+00 1.336052932933377152e-03 -1.511330091354379235e-01 4.320825014736977554e-01 -9.513890321191076360e-01 -1.003355493784529928e+00 0.000000000000000000e+00 0.000000000000000000e+00 0.000000000000000000e+00
1.000000000000000021e-02 1.308103512848972638e+00 7.024747409106682494e-02 -7.701751381792015794e-01 -1.057549139442446773e+00 -1.335492501454487835e+00 -9.106098332442167376e-01 0.000000000000000000e+00 0.000000000000000000e+00 0.000000000000000000e+00
1.000000000000000021e-02 1.410020591984749938e+00 7.141308265534087596e-01 6.301812508212184527e-01 9.357249493856342748e-02 8.046458875452305870e-01 -5.894280352269721801e-01 0.000000000000000000e+00 0.000000000000000000e+00 0.000000000000000000e+00
1.000000000000000021e-02 -2.738585596087462104e+00 -2.175551174185102354e+00 2.188048697758933070e-01 -2.174815013947587750e-01 -9.384321356047363449e-02 1.606037257700894560e+00 0.000000000000000000e+00 0.000000000000000000e+00 0.000000000000000000e+00
1.000000000000000021e-02 -1.272597515565541126e+00 -1.877785261445091280e-01 -1.789635337396697334e+00 -4.870571233799599886e-01 -1.522668813778824903e+00 -9.647707031497887442e-02 0.000000000000000000e+00 0.000000000000000000e+00 0.000000000000000000e+00
1.000000000000000021e-02 2.903069390311131537e-01 -1.619828349034658999e+00 -1.280475137477681546e-01 2.365442546752119235e-01 1.609388497537074691e+00 2.356664038329767230e+00 0.000000000000000000e+00 0.000000000000000000e+00 0.000000000000000000e+00
1.000000000000000021e-02 -1.936913447675334479e-02 -4.657879303268559479e-01 -1.979500550041119189e-01 -1.564228688922958854e+00 -1.190146695851675762e+00 1.814102472352594198e-01 0.000000000000000000e+00 0.000000000000000000e+00 0.000000000000000000e+00
1.000000000000000021e-02 7.795968223038065581e-01 1.312401053944235174e-01 -5.437442613901349864e-01 3.669282779881510304e-01 3.115923596605297274e-01 8.251301727888492588e-01 0.000000000000000000e+00 0.000000000000000000e+00 0.000000000000000000e+00
1.000000000000000021e-02 -7.351844330523633619e-01 -8.277324585184113737e-01 -1.450558427333761946e+00 -5.792813821998582524e-01 -1.345151635459543860e+00 4.221002838651652378e-01 0.000000000000000000e+00 0.000000000000000000e+00 0.000000000000000000e+00
1.000000000000000021e-02 2.298231660007550747e+00 3.166698590474483765e-01 1.518964261926210257e+00 -1.243293183101679800e+00 1.301698008010498508e+00 -3.651654245605427951e-01 0.000000000000000000e+00 0.000000000000000000e+00 0.000000000000000000e+00
1.000000000000000021e-02 2.284681680620107791e+00 4.668104112917974557e-01 -1.248188150108045402e+00 8.992165172674769780e-01 2.400524106467793573e+00 -2.755464877025411430e-01 0.000000000000000000e+00 0.000000000000000000e+00 0.000000000000000000e+00
1.000000000000000021e-02 1.212727198793964067e+00 8.445084060898894185e-01 -6.959330615643427587e-01 1.552600638212569273e-01 -6.820164847155142374e-01 7.124651049188306384e-01 0.000000000000000000e+00 0.000000000000000000e+00 0.000000000000000000e+00
1.000000000000000021e-02 -4.762688050780169990e-01 -9.637577680599817009e-01 3.421360780112463890e-02 1.954948185012342909e+00 -9.182971125942351875e-01 8.101614268609593772e-01 0.000000000000000000e+00 0.000000000000000000e+00 0.000000000000000000e+00
1.000000000000000021e-02 -6.726725397262123263e-01 1.236640873073182156e+00 -6.962438582071794890e-01 8.269658060700246782e-01 7.583738103232016137e-01 7.312355569442188230e-01 0.000000000000000000e+00 0.000000000000000000e+00 0.000000000000000000e+00
1.000000000000000021e-02 5.863797144154554025e-02 8.918012936085562004e-02 7.447012565100914472e-01 2.422821812437787603e+00 4.586752636360205138e-01 -1.738640342710928433e-01 0.000000000000000000e+00 0.000000000000000000e+00 0.000000000000000000e+00
1.000000000000000021e-02 -1.051357344859150528e-01 -1.934090762734206881e-01 1.691845923455382872e+00 1.270022574417809524e+00 -2.690443081195243447e-01 6.699343449814079143e-01 0.000000000000000000e+00 0.000000000000000000e+00 0.000000000000000000e+00
1.000000000000000021e-02 2.011205015065529178e-01 5.207262333879624297e-03 -2.166581701517147351e-01 -5.054177481120134541e-01 -4.366238444933573382e-01 9.766631437993757991e-01 0.000000000000000000e+00 0.000000000000000000e+00 0.000000000000000000e+00
1.000000000000000021e-02 -1.516739165233655484e+00 -1.558144964247429876e+00 1.901552211350058474e+00 -1.240111467891856334e+00 1.865676298837672054e+00 2.125501322722961606e-01 0.000000000000000000e+00 0.000000000000000000e+00 0.000000000000000000e+00
1.000000000000000021e-02 -3.160127385855172055e-01 -1.338099439559867765e-01 2.458000019026386762e-01 -4.877665906230740922e-01 -2.762690238206382265e-01 -1.033670597994392315e+00 0.000000000000000000e+00 0.000000000000000000e+00 0.000000000000000000e+00
1.000000000000000021e-02 -1.383590144065286021e+00 4.755977384188461721e-01 -2.256034447383257202e+00 5.741824406595560371e-01 5.974097071037717255e-01 8.901151932064319539e-01 0.000000000000000000e+00 0.000000000000000000e+00 0.000000000000000000e+00
1.000000000000000021e-02 6.793436784762146852e-01 -1.619286458446688393e+00 1.574750132963036675e+00 9.575507030641595696e-01 3.076023114810247927e-01 7.576141432754014415e-01 0.000000000000000000e+00 0.000000000000000000e+00 0.000000000000000000e+00
1.000000000000000021e-02 -2.018309051880676552e+00 9.409454442840614607e-01 -1.122337537358670589e+00 1.052251232342421128e+00 -4.224924692980002727e-01 3.116758236791524195e-01 0.000000000000000000e+00 0.000000000000000000e+00 0.000000000000000000e+00
1.000000000000000021e-02 8.224993956703869902e-01 4.776057059712010555e-01 1.261883324160424091e-01 -1.494642890903295163e+00 2.519936976447197940e-01 -9.024066526889676920e-01 0.000000000000000000e+00 0.000000000000000000e+00 0.000000000000000000e+00
1.000000000000000021e-02 1.039195359771750260e+00 -8.367510028901137265e-01 -2.360192631243002853e-02 5.642617316125162485e-01 -1.475318871376103402e-01 -1.878624383294000388e+00 0.000000000000000000e+00 0.000000000000000000e+00 0.000000000000000000e+00
1.000000000000000021e-02 1.018616668623329780e+00 -2.653645705605849892e-01 -1.443968782204251566e-01 -1.796570312482807408e+00 1.198621872316131931e+00 3.699290977064489949e-01 0.000000000000000000e+00 0.000000000000000000e+00 0.000000000000000000e+00
1.000000000000000021e-02 5.252583049066067433e-01 -4.456876936372292652e-01 -4.910794778213005141e-01 -1.888345646062482341e+00 9.428916937306560664e-01 -3.252983256479802798e-01 0.000000000000000000e+00 0.000000000000000000e+00 0.000000000000000000e+00
1.000000000000000021e-02 -8.360447329851304898e-01 8.002650097311573285e-01 -2.899396632311817545e-01 1.065211557957800981e+00 1.199829605352020989e+00 -4.382594985972985135e-01 0.000000000000000000e+00 0.000000000000000000e+00 0.000000000000000000e+00
1.000000000000000021e-02 1.270809204843917239e+00 4.077318689987694533e-01 8.995623472371848672e-01 -1.058640289790505395e+00 5.368763007562484812e-01 3.498057395528943458e-01 0.000000000000000000e+00 0.000000000000000000e+00 0.000000000000000000e+00
1.000000000000000021e-02 -3.588528475139808327e-01 2.573000813866257452e+00 7.611857622279064595e-01 3.685573186627762454e-01 6.770750017688926814e-01 -1.276656619579392471e+00 0.000000000000000000e+00 0.000000000000000000e+00 0.000000000000000000e+00
1.000000000000000021e-02 5.548065653737738190e-01 -1.239492940577890723e+00 5.060827136792318548e-01 -1.143632278801952618e+00 -6.101088375459989832e-01 -1.606674901615683798e-02 0.000000000000000000e+00 0.000000000000000000e+00 0.000000000000000000e+00
1.000000000000000021e-02 1.087423742338173627e+00 -1.331300291525029100e-01 1.947578930470431846e+00 -1.230782398033286595e-02 -1.622089625951147196e-01 -8.966944846537397429e-02 0.000000000000000000e+00 0.000000000000000000e+00 0.000000000000000000e+00
1.000000000000000021e-02 9.336465366300543689e-01 -9.641524458788768293e-01 5.877139203346827268e-01 1.525519970638426065e-02 -3.884278872281031469e-02 2.252792364999949837e-01 0.000000000000000000e+00 0.000000000000000000e+00 0.000000000000000000e+00
1.000000000000000021e-02 6.850393332860201800e-01 3.090041839669993018e-01 6.440458066895152767e-01 -2.340031441767379761e+00 1.508241912313026400e-01 -7.267733937671826405e-01 0.000000000000000000e+00 0.000000000000000000e+00 0.000000000000000000e+00
1.000000000000000021e-02 1.143703088494498754e+00 -4.179602800323092282e-01 -1.782984342138548839e-01 -3.835202337831702252e-02 3.379688308314917622e-01 -5.460059929817138169e-01 0.000000000000000000e+00 0.000000000000000000e+00 0.000000000000000000e+00
1.000000000000000021e-02 -6.057315987050746475e-01 5.507965808480751457e-01 -3.435590416592284452e-02 3.963877519018429996e-01 -2.500243905476638440e-01 9.330006617381400580e-02 0.000000000000000000e+00 0.000000000000000000e+00 0.000000000000000000e+00
1.000000000000000021e-02 9.776979135404768595e-01 1.561284569959295210e+00 4.222714639211578302e-01 -4.391405506224533295e-01 -2.012718657441686931e-01 -2.648728770360090357e-01 0.000000000000000000e+00 0.000000000000000000e+00 0.000000000000000000e+00
1.000000000000000021e-02 -5.647978128010646692e-01 -1.011717309787481645e+00 8.608521106978168635e-01 7.390498155647190481e-01 -4.445981430437286330e-01 4.389102113583805420e-01 0.000000000000000000e+00 0.000000000000000000e+00 0.000000000000000000e+00
1.000000000000000021e-02 2.990282284609686037e-01 1.957452240222208317e+00 -6.921879776480274193e-01 -6.181477385986191564e-01 -5.974097051226804345e-01 5.177616505754745191e-01 0.000000000000000000e+00 0.000000000000000000e+00 0.000000000000000000e+00
1.000000000000000021e-02 -3.589409830916362454e-01 -4.226612282672485010e-01 -3.009649184450793324e-01 2.101364934601077650e+00 -1.187837382548040388e-01 -1.304043028029886919e+00 0.000000000000000000e+00 0.000000000000000000e+00 0.000000000000000000e+00
1.000000000000000021e-02 -8.621235840046007626e-01 4.229575307951897734e-01 -5.903149239146028293e-01 5.764209872869735518e-01 -5.852718501445660637e-01 -2.100843438657689077e-01 0.000000000000000000e+00 0.000000000000000000e+00 0.000000000000000000e+00
1.000000000000000021e-02 -1.758750480580033804e+00 4.787454243441805479e-01 7.201331753676177838e-01 1.050952302294479113e+00 -1.033804353504561124e+00 9.550034600180642430e-01 0.000000000000000000e+00 0.000000000000000000e+00 0.000000000000000000e+00
1.000000000000000021e-02 -1.105170999076814153e+00 -7.381933470581181211e-01 -1.792708131690949058e-01 -9.488424974979446924e-01 -1.540304782953116902e+00 -9.748594867961009047e-01 0.000000000000000000e+00 0.000000000000000000e+00 0.000000000000000000e+00
1.000000000000000021e-02 4.601438060017387088e-01 -2.650337236421493881e-01 -3.435547974542721428e-01 -2.056385739283826952e-01 -6.750996281227507056e-01 7.357896146232495438e-01 0.000000000000000000e+00 0.000000000000000000e+00 0.000000000000000000e+00
1.000000000000000021e-02 7.326903398721119620e-01 -1.487533670635359684e+00 -7.899454775144695295e-01 1.409363811333118832e+00 7.460052645887214062e-01 -9.612366036408226400e-01 0.000000000000000000e+00 0.000000000000000000e+00 0.000000000000000000e+00
1.000000000000000021e-02 9.964024307719580031e-01 6.375334613415605256e-01 1.749853690031618336e-01 -4.294973170813200514e-01 3.943796283608370090e-01 -1.317569263259121382e+00 0.000000000000000000e+00 0.000000000000000000e+00 0.000000000000000000e+00
1.000000000000000021e-02 3.171616052360966553e-01 5.821919814538408650e-02 -1.775549331197093350e+00 -8.997632550084257858e-03 -5.434330498025223555e-02 -3.436930664426892656e-01 0.000000000000000000e+00 0.000000000000000000e+00 0.000000000000000000e+00
1.000000000000000021e-02 1.666921513963247614e+00 8.731303067840237020e-01 2.302596162802951762e-01 9.261233695592724358e-01 6.344426570733533444e-01 1.366940342490231552e+00 0.000000000000000000e+00 0.000000000000000000e+00 0.000000000000000000e+00
1.000000000000000021e-02 -7.743132944667031614e-01 8.682957295792137487e-01 3.985409874769832772e+00 -5.991419956549167702e-01 -8.225253487497315996e-01 1.867152648000867554e+00 0.000000000000000000e+00 0.000000000000000000e+00 0.000000000000000000e+00
1.000000000000000021e-02 -4.877041228177753096e-01 5.619451429882552640e-01 -8.216582334997721837e-01 2.728315849021923367e-01 7.387966871247022560e-01 2.042546958700425241e-02 0.000000000000000000e+00 0.000000000000000000e+00 0.000000000000000000e+00
1.000000000000000021e-02 9.138174718512234174e-01 -1.462761353907080952e+00 1.345442496023599166e-01 -1.850483797323930091e+00 -6.228967146046058279e-01 -5.625647794295155629e-02 0.000000000000000000e+00 0.000000000000000000e+00 0.000000000000000000e+00
1.000000000000000021e-02 9.944399128677118560e-02 -5.919630441522980568e-01 -1.144818862761206590e+00 -3.790006726429456796e-01 -1.796883185704655883e+00 -1.778911332052922845e+00 0.000000000000000000e+00 0.000000000000000000e+00 0.000000000000000000e+00
1.000000000000000021e-02 -8.966343679930649513e-01 -1.416825193767947688e+00 -1.505781912628368469e+00 4.832029453078950376e-01 -7.364563857041221961e-01 -3.899150419718269145e-01 0.000000000000000000e+00 0.000000000000000000e+00 0.000000000000000000e+00
1.000000000000000021e-02 -1.026422887690335017e-01 -9.046523578951672917e-01 -3.271205894143386361e-01 -6.862815776245083377e-02 -1.886936562631143399e+00 4.139671815695444290e-01 0.000000000000000000e+00 0.000000000000000000e+00 0.000000000000000000e+00
1.000000000000000021e-02 -5.528701369028041768e-01 1.726443812454415971e-01 -1.762780644047238221e+00 9.056946599022586142e-01 -1.417919613743094498e+00 -4.856559722862827111e-02 0.000000000000000000e+00 0.000000000000000000e+00 0.000000000000000000e+00
1.000000000000000021e-02 1.703314765676825049e+00 -1.221955147142465004e+00 -6.684307498085835242e-01 -2.151792030973097569e-01 3.724144039643301207e-01 -1.192219422170940790e+00 0.000000000000000000e+00 0.000000000000000000e+00 0.000000000000000000e+00
1.000000000000000021e-02 -4.263616752215727557e-01 -1.070443872115520945e+00 -1.749361870327783564e+00 3.559254940733578287e-01 5.058316117272998458e-01 -9.658723669943631851e-01 0.000000000000000000e+00 0.000000000000000000e+00 0.000000000000000000e+00
1.000000000000000021e-02 1.671839899076139613e+00 -7.909549336951910981e-01 -1.649119065643745996e+00 9.335199957337044774e-01 1.444384737295708598e+00 -1.493297734222401640e+00 0.000000000000000000e+00 0.000000000000000000e+00 0.000000000000000000e+00
1.000000000000000021e-02 -5.603972702535042760e-01 -2.187490964603330923e+00 -1.062286553319961691e+00 -2.065348070392926672e-01 -2.948817201817667821e-01 -1.271025391030708440e-01 0.000000000000000000e+00 0.000000000000000000e+00 0.000000000000000000e+00
1.000000000000000021e-02 -7.726160104154932151e-01 2.491592590533335261e-01 -2.648384104089986368e-01 -7.157319722091094460e-01 1.267974348598296108e-01 1.863912972846104577e+00 0.000000000000000000e+00 0.000000000000000000e+00 0.000000000000000000e+00
1.000000000000000021e-02 9.616001183285337595e-01 1.397229079984008582e+00 5.350519026028967007e-01 4.319468298861557920e-01 -1.555415566747109929e-02 3.156281718582373830e-01 0.000000000000000000e+00 0.000000000000000000e+00 0.000000000000000000e+00
1.000000000000000021e-02 -8.250372526869067524e-01 -8.579510641273541127e-01 5.137787531825545040e-01 -3.124794206801623786e-01 7.228508278431967637e-01 -6.181641841018646888e-01 0.000000000000000000e+00 0.000000000000000000e+00 0.000000000000000000e+00
1.000000000000000021e-02 4.455820688099302457e-02 8.325175048894142282e-01 3.133557361967840849e-01 5.030041870822543615e-01 -6.222979635845944379e-01 -4.290089630540191989e-01 0.000000000000000000e+00 0.000000000000000000e+00 0.000000000000000000e+00
1.000000000000000021e-02 8.033422236930648497e-01 -1.144633413554436041e+00 -1.868295983973952801e+00 -7.588082450297176651e-01 5.315597133973362087e-01 9.135640868878157628e-01 0.000000000000000000e+00 0.000000000000000000e+00 0.000000000000000000e+00
1.000000000000000021e-02 1.882947466621049948e-01 2.353355204246175281e-01 8.658840494222699302e-01 1.090292441626089515e+00 -2.808412535776574348e-01 -1.768744732074629455e+00 0.000000000000000000e+00 0.000000000000000000e+00 0.000000000000000000e+00
1.000000000000000021e-02 1.835068852992575161e+00 -3.413622434875741019e-01 -1.275700925051102663e+00 -1.280585485016966230e+00 2.112191003480261120e+00 8.098284415884714482e-01 0.000000000000000000e+00 0.000000000000000000e+00 0.000000000000000000e+00
1.000000000000000021e-02 -5.233716585929473197e-01 -3.813843184924139429e-01 1.041004224120175792e+00 -1.911162633773581532e-01 -1.103973868620026444e+00 -6.001932547114410266e-01 0.000000000000000000e+00 0.000000000000000000e+00 0.000000000000000000e+00
1.000000000000000021e-02 -1.543575333737202016e+00 1.396449710610629946e+00 -1.454816580947466020e+00 -2.828242449869408093e-01 7.159950147181260993e-01 -2.142704282130179771e-01 0.000000000000000000e+00 0.000000000000000000e+00 0.000000000000000000e+00
1.000000000000000021e-02 4.757865312611601061e-01 -6.434936013401397759e-01 7.139644741251971460e-01 -4.226458342223514131e-01 -1.377459360026691337e+00 -1.156565972314290924e+00 0.000000000000000000e+00 0.000000000000000000e+00 0.000000000000000000e+00
1.000000000000000021e-02 3.107327425817288380e-01 6.995022654126270556e-04 -4.970352014878546276e-01 7.986617298304798940e-01 1.735041218171850863e+00 2.024288026023461362e-01 0.000000000000000000e+00 0.000000000000000000e+00 0.000000000000000000e+00
1.000000000000000021e-02 9.088386864279511812e-01 6.989995130537417500e-01 1.817906637964483429e-01 -7.799106742648709290e-01 -1.116485008222274089e-01 -1.310356813852088687e+00 0.000000000000000000e+00 0.000000000000000000e+00 0.000000000000000000e+00
1.000000000000000021e-02 -1.417363104943931140e-01 -2.411067510906444306e-02 2.006382624047125418e+00 1.315338675409975178e+00 -7.529596478007156701e-01 -3.045781939363567670e-02 0.000000000000000000e+00 0.000000000000000000e+00 0.000000000000000000e+00
1.000000000000000021e-02 2.778410158406373065e-01 -1.427978985590167893e+00 -8.684432095715687305e-01 2.280684734978195849e-01 7.489232781062875599e-01 -3.471430176551549840e-01 0.000000000000000000e+00 0.000000000000000000e+00 0.000000000000000000e+00
1.000000000000000021e-02 1.363108093992677905e-01 -3.002212865305810552e-01 -5.897169059626155008e-01 1.473330698102113812e-01 1.401968031045944252e-01 2.478983914141450473e+00 0.000000000000000000e+00 0.000000000000000000e+00 0.000000000000000000e+00
1.000000000000000021e-02 -3.155880465234917609e-01 -2.722243394471517974e-01 -1.076906496191104567e-03 -1.096179650415813223e+00 1.151079166881314453e-01 -1.076453642905504271e+00 0.000000000000000000e+00 0.000000000000000000e+00 0.000000000000000000e+00
1.000000000000000021e-02 -2.014430406070314428e-01 8.441437063687126097e-01 8.453170859521200731e-01 -8.493006321455692786e-01 -5.840580267192192476e-01 1.171489073236536699e-01 0.000000000000000000e+00 0.000000000000000000e+00 0.000000000000000000e+00
1.000000000000000021e-02 1.234188456541913392e-01 -4.419122246911327268e-01 1.196863355301261977e+00 -2.887863142439057174e-01 -4.563004531584014534e-01 -5.869916505198643358e-02 0.000000000000000000e+00 0.000000000000000000e+00 0.000000000000000000e+00
1.000000000000000021e-02 1.609134631391259784e+00 -5.960963888285063517e-01 -7.449400340440857082e-01 2.670101625927302269e+00 9.292044581194736086e-01 -8.702259071841074445e-02 0.000000000000000000e+00 0.000000000000000000e+00 0.000000000000000000e+00
1.000000000000000021e-02 -1.399314005564419539e+00 -1.425659363110398203e+00 -6.618462535476680175e-01 -6.573106880640067207e-02 -3.303623837521220130e-01 -6.201109259826871334e-01 0.000000000000000000e+00 0.000000000000000000e+00 0.000000000000000000e+00
1.000000000000000021e-02 -2.669885075366962846e-01 8.427610939534539991e-01 -9.558905890137275874e-01 -2.655457883705553357e+00 1.238844779901967730e+00 1.154993765421390428e+00 0.000000000000000000e+00 0.000000000000000000e+00 0.000000000000000000e+00
1.000000000000000021e-02 2.660478041842843089e-01 4.759881106998446049e-02 1.151404702777735656e+00 -8.156751913252530128e-02 2.617756093247639582e-01 -9.410123016558706865e-01 0.000000000000000000e+00 0.000000000000000000e+00 0.000000000000000000e+00
1.000000000000000021e-02 2.520834902318604076e+00 -1.917021093576023738e-01 -2.318168345409501896e+00 1.295764197790849837e+00 -1.805563050384240975e-01 7.303043088925575965e-01 0.000000000000000000e+00 0.000000000000000000e+00 0.000000000000000000e+00
1.000000000000000021e-02 -6.532987656563712386e-01 -3.529530674353322794e-01 5.273384464095027813e-01 -4.248776382701713317e-01 -2.692207001151164514e-01 -1.215338056879999629e+00 0.000000000000000000e+00 0.000000000000000000e+00 0.000000000000000000e+00
1.000000000000000021e-02 1.542993037793972011e+00 7.234526495544166824e-01 -6.734349319907788622e-01 1.298328263325372101e+00 1.196301733861789840e+00 -7.376755925784461709e-01 0.000000000000000000e+00 0.000000000000000000e+00 0.000000000000000000e+00
1.000000000000000021e-02 -9.420919305305959224e-01 4.532925110320683570e-01 6.908034553956688972e-01 3.318332154311505744e-01 -9.160459894049275409e-01 3.045849283139123176e-01 0.000000000000000000e+00 0.000000000000000000e+00 0.000000000000000000e+00
1.000000000000000021e-02 -1.370428161092137054e-01 8.447896380306348929e-01 -1.498560717018803778e+00 -2.128756205832914583e-01 7.164976825800222215e-01 5.775814784697034243e-01 0.000000000000000000e+00 0.000000000000000000e+00 0.000000000000000000e+00
1.000000000000000021e-02 -1.216535718991235138e+00 -2.377370999643579202e-02 -1.806076852215618977e-01 -5.594177309339806170e-01 -1.460394859826293912e+00 2.587332066366075933e-01 0.000000000000000000e+00 0.000000000000000000e+00 0.000000000000000000e+00
1.000000000000000021e-02 4.941403283174763961e-01 -5.567045027548606084e-01 -1.324568278915245978e+00 6.200628415079622036e-01 -1.525031352848405519e-01 2.081030721363265279e+00 0.000000000000000000e+00 0.000000000000000000e+00 0.000000000000000000e+00
1.000000000000000021e-02 1.620590652297071887e+00 9.803227174018172563e-02 -1.623293897043926792e+00 -1.422913652326392553e+00 1.946962772223271854e+00 -6.840837681827822703e-01 0.000000000000000000e+00 0.000000000000000000e+00 0.000000000000000000e+00
1.000000000000000021e-02 -2.040747897236100616e+00 -1.307610014874347915e+00 8.875502637132715034e-02 8.078068273042123826e-01 -1.120630460299609998e+00 -5.836649216570455323e-01 0.000000000000000000e+00 0.000000000000000000e+00 0.000000000000000000e+00
1.000000000000000021e-02 -7.497564086699048946e-01 6.269770354942434398e-01 -2.430856092006932201e+00 -6.178484575710123661e-01 1.901616731258059634e+00 -7.333613466683019944e-02 0.000000000000000000e+00 0.000000000000000000e+00 0.000000000000000000e+00
1.000000000000000021e-02 2.010346035363292483e+00 1.322093759706876259e+00 1.348091326304534376e-01 9.602727794228511637e-01 -4.714457575777516452e-01 -8.022245845793753993e-01 0.000000000000000000e+00 0.000000000000000000e+00 0.000000000000000000e+00
1.000000000000000021e-02 1.222977432140354370e+00 -1.401501305954992171e-01 -2.856230651008394017e-01 -7.603288303483672905e-01 -5.051777666684431622e-01 -9.292319533379946872e-01 0.000000000000000000e+00 0.000000000000000000e+00 0.000000000000000000e+00
1.000000000000000021e-02 3.818806945606936232e-01 7.781419955074437844e-01 1.811217962800913683e-01 -1.092547956887342853e+00 -4.973070314284007143e-01 -1.090729891040775890e+00 0.000000000000000000e+00 0.000000000000000000e+00 0.000000000000000000e+00
1.000000000000000021e-02 2.015338899959285834e-01 1.666821726467463627e+00 -2.616431504820317944e-01 -1.840532081262913622e-01 1.655969681025519502e-01 3.614914614480673194e-01 0.000000000000000000e+00 0.000000000000000000e+00 0.000000000000000000e+00
1.000000000000000021e-02 1.391550321694050130e+00 1.828187561843939712e-01 1.896519599789307231e-01 6.295296392043143729e-01 2.910279435298009781e-02 -1.118980366917274663e-02 0.000000000000000000e+00 0.000000000000000000e+00 0.000000000000000000e+00
1.000000000000000021e-02 -2.700774956299896612e+00 -6.014169987127386818e-01 8.689101220604191766e-01 -3.519836204783560185e-01 -9.583732299902385510e-01 8.516954866623108189e-02 0.000000000000000000e+00 0.000000000000000000e+00 0.000000000000000000e+00
1.000000000000000021e-02 3.391310798241667368e-01 -1.814940759713390139e-01 1.364437574097844941e+00 6.236970429669662641e-01 1.849748573881697888e+00 -2.345872336477485692e-02 0.000000000000000000e+00 0.000000000000000000e+00 0.000000000000000000e+00
1.000000000000000021e-02 1.598778374131787361e+00 -1.110944791042893565e+00 -7.054579007917375355e-01 8.313367747508216832e-01 -2.038282405864813462e+00 7.645226968314656757e-01 0.000000000000000000e+00 0.000000000000000000e+00 0.000000000000000000e+00
1.000000000000000021e-02 -1.277772038059856508e+00 1.219414290264329015e+00 -7.318455998116228933e-01 -6.398537444320309131e-01 -8.584211150115850231e-01 -1.189047784690233867e+00 0.000000000000000000e+00 0.000000000000000000e+00 0.000000000000000000e+00
1.000000000000000021e-02 -1.238893220872305800e+00 -2.201833813957660979e-01 -4.835249270463822802e-01 1.612856315817051689e-01 -7.196766882566353329e-01 -2.599173617499148659e-01 0.000000000000000000e+00 0.000000000000000000e+00 0.000000000000000000e+00
1.000000000000000021e-02 4.211806553764789185e-01 1.559777802616295062e-01 3.219055632767327535e-01 -6.782958000922824360e-02 4.718049433548375804e-01 -2.294910988513629846e+00 0.000000000000000000e+00 0.000000000000000000e+00 0.000000000000000000e+00
1.000000000000000021e-02 1.850471383561848482e+00 -1.944505687448799369e+00 -2.337638137879862466e-01 -5.786520751447996602e-01 -4.996790621263406118e-01 1.955859893084147316e+00 0.000000000000000000e+00 0.000000000000000000e+00 0.000000000000000000e+00
1.000000000000000021e-02 -1.097087210460161888e+00 -6.110004185119134457e-01 1.052889813368280691e+00 1.884372654650450452e+00 -9.335104352055272059e-02 7.884898273464878427e-02 0.000000000000000000e+00 0.000000000000000000e+00 0.000000000000000000e+00
1.000000000000000021e-02 1.743235434233456338e-01 1.128016519219874114e+00 -5.799068140216916412e-01 2.017297966146327365e-02 -2.708425571629797801e-01 1.428014449930731455e+00 0.000000000000000000e+00 0.000000000000000000e+00 0.000000000000000000e+00
1.000000000000000021e-02 -7.813751594329871875e-01 -8.227761878671021462e-03 6.824439436415614679e-01 -1.051298921986850710e+00 1.969877982215050560e-01 2.474746468547301403e-01 0.000000000000000000e+00 0.000000000000000000e+00 0.000000000000000000e+00
1.000000000000000021e-02 -3.759364436399909026e-02 -1.018207994238526481e+00 -5.125484159467627032e-01 5.372682150371117515e-01 -3.656144334325762690e-01 -1.114386522212552189e+00 0.000000000000000000e+00 0.000000000000000000e+00 0.000000000000000000e+00
1.000000000000000021e-02 -1.201218954497424996e+00 -8.538221782387865888e-01 6.146297050972907572e-01 -6.974854984656080337e-01 -4.515787371392402938e-01 1.305022094945760269e+00 0.000000000000000000e+00 0.000000000000000000e+00 0.000000000000000000e+00
1.000000000000000021e-02 -8.738707117763049315e-01 -1.094065080424695191e+00 -8.446909934439188472e-01 -2.432730418058787550e-02 -1.345042670501617632e+00 1.118539799251951461e+00 0.000000000000000000e+00 0.000000000000000000e+00 0.000000000000000000e+00
1.000000000000000021e-02 -1.700558082509693092e+00 -1.058269076628612471e+00 -1.633067366094604900e+00 -7.221572867867576129e-01 1.766981307903816578e-01 -3.666282877619437830e-01 0.000000000000000000e+00 0.000000000000000000e+00 0.000000000000000000e+00
1.000000000000000021e-02 3.722562615753829268e-02 1.206764031621336164e+00 1.846762262117764009e-01 4.358947195066825153e-01 8.378201780012560773e-01 -3.514664517094391594e-02 0.000000000000000000e+00 0.000000000000000000e+00 0.000000000000000000e+00
1.000000000000000021e-02 4.603725262656271910e-01 -1.317650153466114249e+00 1.562698226201887364e+00 -1.692951958408105972e-01 -2.974725935004288169e-01 8.112286646639655929e-01 0.000000000000000000e+00 0.000000000000000000e+00 0.000000000000000000e+00
1.000000000000000021e-02 1.986610891198280215e-02 2.613383256514381983e-02 -5.678720522811966376e-01 1.000414054036018463e+00 8.185204011779754207e-01 -1.052498714633847587e+00 0.000000000000000000e+00 0.000000000000000000e+00 0.000000000000000000e+00
1.000000000000000021e-02 3.454335862143398939e-01 -1.196981406855317509e+00 4.795929881607233214e-02 -7.672192798793816548e-01 1.064654214006322541e-01 6.262543959665586302e-01 0.000000000000000000e+00 0.000000000000000000e+00 0.000000000000000000e+00
1.000000000000000021e-02 -1.028952101416788834e+00 -3.160974880625617711e-01 6.841031178355251319e-01 8.660590990751146911e-01 5.871504073296384130e-01 2.304586886171923421e+00 0.000000000000000000e+00 0.000000000000000000e+00 0.000000000000000000e+00
1.000000000000000021e-02 1.317290485800950650e+00 1.471821285585284800e+00 1.336463179932574130e+00 -9.602762862581954995e-01 -3.232388328310863979e-01 -4.346032355929705382e-01 0.000000000000000000e+00 0.000000000000000000e+00 0.000000000000000000e+00
1.000000000000000021e-02 1.997357223535298543e+00 -1.255271996340391993e+00 5.290144452813509701e-02 -8.128665018472206460e-01 -9.719267245231628660e-01 -1.335840169179143277e+00 0.000000000000000000e+00 0.000000000000000000e+00 0.000000000000000000e+00
1.000000000000000021e-02 -2.434428674055147956e-01 -7.691204436414322831e-01 3.472159016312478808e-01 -1.017206474674618166e-01 -1.272378594346612379e+00 -6.498717150447033131e-01 0.000000000000000000e+00 0.000000000000000000e+00 0.000000000000000000e+00
1.000000000000000021e-02 -2.053747870354196425e-01 5.379993259998336885e-01 -5.344984929351282998e-01 9.078921628836255087e-01 1.526042711810954522e+00 4.482516435335840432e-01 0.000000000000000000e+00 0.000000000000000000e+00 0.000000000000000000e+00
1.000000000000000021e-02 -6.892863032605706097e-01 1.019399639878445063e+00 3.965882998478889587e-01 7.992420440133981563e-01 1.159521530822756219e+00 1.183378023881128893e+00 0.000000000000000000e+00 0.000000000000000000e+00 0.000000000000000000e+00
1.000000000000000021e-02 1.952320883692625075e-01 2.161284423600266097e-02 7.535219751972825619e-02 -1.656050588075393737e+00 -2.077682086857108867e-01 7.632680500178646854e-01 0.000000000000000000e+00 0.000000000000000000e+00 0.000000000000000000e+00
1.000000000000000021e-02 1.802657968761262053e+00 2.234460883968090172e+00 -9.753135967911490400e-01 1.383368837082227687e+00 6.470310943234830470e-01 2.680558683116064156e+00 0.000000000000000000e+00 0.000000000000000000e+00 0.000000000000000000e+00
1.000000000000000021e-02 1.838240889974281089e-02 -1.349694643416376183e-01 -6.158418230015445527e-01 8.046008884525542859e-01 9.675557147440080330e-01 -3.108562849473529011e-01 0.000000000000000000e+00 0.000000000000000000e+00 0.000000000000000000e+00
1.000000000000000021e-02 9.070869885652816933e-01 4.729743124603474347e-01 -1.994628348777414795e+00 -1.025678834431045017e+00 -8.063147471994704940e-01 2.244697538198653086e-01 0.000000000000000000e+00 0.000000000000000000e+00 0.000000000000000000e+00
1.000000000000000021e-02 -5.484350013410366209e-01 -4.565823595654862066e-01 -1.563832358959908575e+00 -4.638436127334187864e-01 -1.919842366091623620e-01 5.351719338109923729e-01 0.000000000000000000e+00 0.000000000000000000e+00 0.000000000000000000e+00
1.000000000000000021e-02 -1.681487118243648604e-01 -2.740819944170601596e-01 -5.177368918789322372e-01 -4.860546585014737242e-01 1.513814840131385009e-01 1.768353649393696214e+00 0.000000000000000000e+00 0.000000000000000000e+00 0.000000000000000000e+00
1.000000000000000021e-02 1.171588189984777012e-01 -1.095561247030404806e+00 9.439383224160201591e-01 1.960625924865880831e-01 -1.855405983810873405e+00 -3.166233617866058836e+00 0.000000000000000000e+00 0.000000000000000000e+00 0.000000000000000000e+00
1.000000000000000021e-02 -1.265630493388653299e+00 -8.621005344796395242e-01 -2.562447142688064616e-01 2.709254597793605557e-01 -6.747314618327139579e-02 2.567029544198395907e-01 0.000000000000000000e+00 0.000000000000000000e+00 0.000000000000000000e+00
1.000000000000000021e-02 6.935811555605020384e-01 -6.905169530615158646e-02 -5.849769232661524709e-01 -8.876861019062380898e-01 -1.155195383476962601e+00 -4.799350562474665183e-01 0.000000000000000000e+00 0.000000000000000000e+00 0.000000000000000000e+00
1.000000000000000021e-02 1.681751396682279909e+00 -1.844842248474996560e-01 9.419675889502199251e-01 9.932854984672494503e-01 -5.404100596855234695e-01 4.522696904769645254e-01 0.000000000000000000e+00 0.000000000000000000e+00 0.000000000000000000e+00
1.000000000000000021e-02 -1.683043976002206177e-01 1.985252226338128478e+00 3.391407829775804766e-02 2.808712557779641239e-01 6.667284325893708674e-01 -1.928274306962387774e+00 0.000000000000000000e+00 0.000000000000000000e+00 0.000000000000000000e+00
1.000000000000000021e-02 -1.010060409422901540e-01 4.219808199202260135e-01 -6.709764295973100756e-01 -1.141439555219744051e+00 -6.882720472469218143e-01 6.143206427626555222e-01 0.000000000000000000e+00 0.000000000000000000e+00 0.000000000000000000e+00
1.000000000000000021e-02 7.504906860821375369e-01 1.093162065986687859e+00 1.645708462174141351e-01 -3.806863028998721532e-01 -8.458233938002951424e-01 5.995594743842644903e-01 0.000000000000000000e+00 0.000000000000000000e+00 0.000000000000000000e+00
1.000000000000000021e-02 -3.492581827160473606e-01 2.090000668478089185e+00 5.704600103911250386e-01 -1.542775909318912786e-01 -1.105367670258911472e+00 1.974330031613666658e-01 0.000000000000000000e+00 0.000000000000000000e+00 0.000000000000000000e+00
1.000000000000000021e-02 -3.507226181287106948e-01 6.732749295478850371e-01 2.272897436486004744e-02 -1.659694525127195952e+00 2.572597791600131356e-01 -1.492916951341236365e+00 0.000000000000000000e+00 0.000000000000000000e+00 0.000000000000000000e+00
1.000000000000000021e-02 -1.617199760302845180e+00 -4.333676323012206066e-01 9.579548279977270209e-01 -1.107256760053093370e+00 -9.417144507607762005e-01 -2.482791745527448135e-01 0.000000000000000000e+00 0.000000000000000000e+00 0.000000000000000000e+00
1.000000000000000021e-02 5.226660125686461988e-01 1.416061003450837408e+00 -2.691397608059578950e+00 -1.226805002937358724e+00 -7.636142260565544904e-01 -1.634254974527510895e-01 0.000000000000000000e+00 0.000000000000000000e+00 0.000000000000000000e+00
1.000000000000000021e-02 -4.300205563049285806e-01 2.296625459462122987e-01 1.121683070988841679e+00 7.273569796048988678e-01 5.272821519520684008e-01 -1.915937911669645943e-01 0.000000000000000000e+00 0.000000000000000000e+00 0.000000000000000000e+00
1.000000000000000021e-02 -6.972762144844949495e-01 -6.347324602416588579e-01 -3.232983458365770724e-02 4.944769442821343453e-01 3.197757261674589735e-01 6.078048596015499516e-01 0.000000000000000000e+00 0.000000000000000000e+00 0.000000000000000000e+00
1.000000000000000021e-02 -2.894913211490183214e-01 -7.296677529719243216e-01 1.092959106240201511e-01 -8.267182998278674866e-01 -8.423013816774426177e-01 -1.089535747105579988e+00 0.000000000000000000e+00 0.000000000000000000e+00 0.000000000000000000e+00
1.000000000000000021e-02 2.273194998689901158e+00 -1.088011062561368369e+00 6.011001486088115575e-01 6.389083620299678135e-01 -1.680899832380244319e-01 8.261695732741407283e-02 0.000000000000000000e+00 0.000000000000000000e+00 0.000000000000000000e+00
1.000000000000000021e-02 -1.365740284492516776e-01 4.631907355916249358e-01 -6.517107379596737138e-01 3.211262995604010628e-01 -3.458765600284970793e-02 -1.018502488964365460e+00 0.000000000000000000e+00 0.000000000000000000e+00 0.000000000000000000e+00
1.000000000000000021e-02 8.204504395027492070e-01 -9.467119230599048418e-02 5.769582431570277059e-01 9.431256216068094611e-01 -5.212895068709156865e-01 1.446770317533074612e+00 0.000000000000000000e+00 0.000000000000000000e+00 0.000000000000000000e+00
1.000000000000000021e-02 1.790157318289635313e+00 -9.715549258125317778e-01 9.708498586404284980e-01 6.556170038170582304e-01 1.113247094128514414e-01 7.859692012698561714e-02 0.000000000000000000e+00 0.000000000000000000e+00 0.000000000000000000e+00
1.000000000000000021e-02 -8.958313375612909635e-01 -5.119428518635459335e-01 -1.205738188197074123e+00 9.210502074752439094e-01 1.815829677360401295e-01 8.171063475851251257e-01 0.000000000000000000e+00 0.000000000000000000e+00 0.000000000000000000e+00
1.000000000000000021e-02 -6.802838677128211220e-01 -6.071082673762471238e-01 -3.554428673283092088e-01 2.219552983068323881e-01 1.779230634828787405e+00 -2.037738930596075804e-01 0.000000000000000000e+00 0.000000000000000000e+00 0.000000000000000000e+00
1.000000000000000021e-02 2.655413487892796520e-01 -9.590851608480664703e-02 4.872897394474070554e-01 -1.132433945818727139e+00 -2.154480840028058508e-01 -1.054549179064028230e+00 0.000000000000000000e+00 0.000000000000000000e+00 0.000000000000000000e+00
1.000000000000000021e-02 -4.888170642450250236e-01 5.520156803681519619e-01 -7.162813805854137961e-01 1.756674632113117474e+00 -6.828382114297417704e-01 -8.269319157981314117e-01 0.000000000000000000e+00 0.000000000000000000e+00 0.000000000000000000e+00
1.000000000000000021e-02 -1.109802499803996811e+00 3.548356855287935763e-01 -9.313755578242993716e-02 7.385913739473113360e-01 -5.270405539184640220e-02 -7.584689992271608228e-01 0.000000000000000000e+00 0.000000000000000000e+00 0.000000000000000000e+00
1.000000000000000021e-02 5.443016519259497032e-01 -1.622164508578656683e+00 5.807549116269834499e-01 6.402671862954069718e-03 -8.635621141810614354e-01 3.085899312020582430e-01 0.000000000000000000e+00 0.000000000000000000e+00 0.000000000000000000e+00
1.000000000000000021e-02 3.163326412102451801e-01 5.765698527993557976e-01 7.887308763581274418e-01 9.554637274654952384e-01 -2.145464172238275083e-02 -6.538348105350290096e-01 0.000000000000000000e+00 0.000000000000000000e+00 0.000000000000000000e+00
1.000000000000000021e-02 1.149605534527820216e+00 1.962637146721447401e+00 -1.451034008511497442e+00 -1.538420095833397561e+00 -8.551719311116167122e-01 -4.319142444407622627e-01 0.000000000000000000e+00 0.000000000000000000e+00 0.000000000000000000e+00
1.000000000000000021e-02 1.560981879328347199e+00 2.719831653356154511e-01 -3.182894313448298540e+00 6.367878835811056903e-02 2.309914095602760009e-01 3.839166052906167192e-01 0.000000000000000000e+00 0.000000000000000000e+00 0.000000000000000000e+00
1.000000000000000021e-02 9.269786474472251347e-01 -1.089144756644923717e+00 -2.585208337535475076e-01 -1.173987039129175569e+00 1.018446030135620184e+00 2.387192978690486633e+00 0.000000000000000000e+00 0.000000000000000000e+00 0.000000000000000000e+00
1.000000000000000021e-02 -2.342654240710864977e-01 -5.461502945044607871e-02 7.971956716386839892e-01 -2.094534852806487546e+00 7.537715877206120352e-01 -5.358775274724159043e-01 0.000000000000000000e+00 0.000000000000000000e+00 0.000000000000000000e+00
1.000000000000000021e-02 6.558421341963490692e-01 -7.832018185983067315e-01 5.437472405351870611e-03 -4.774549841396696914e-01 -1.251029201743639740e+00 6.063084370397565648e-01 0.000000000000000000e+00 0.000000000000000000e+00 0.000000000000000000e+00
1.000000000000000021e-02 5.334113728933247423e-01 -1.552392869636914641e-01 9.613128859385191571e-01 -1.687714898123013452e+00 -9.399704381001119380e-01 -9.181933572853782088e-01 0.000000000000000000e+00 0.000000000000000000e+00 0.000000000000000000e+00
1.000000000000000021e-02 6.773215526961278155e-01 1.768533321078391340e+00 -4.058466916046563067e-01 1.238935323222942531e+00 7.549609546377096247e-01 1.370260010780729232e+00 0.000000000000000000e+00 0.000000000000000000e+00 0.000000000000000000e+00
1.000000000000000021e-02 -9.493126010715440266e-01 -1.198467071037155662e+00 3.105926129752917264e-01 -1.306033613108824598e+00 1.494903073189692622e+00 -1.472054365171519663e+00 0.000000000000000000e+00 0.000000000000000000e+00 0.000000000000000000e+00
1.000000000000000021e-02 -1.781134235917487763e+00 -8.233212611142896042e-01 7.757524060440343372e-02 5.824988407210319741e-01 -1.946772624922795680e+00 -3.658796367948535244e-01 0.000000000000000000e+00 0.000000000000000000e+00 0.000000000000000000e+00
1.000000000000000021e-02 -6.258692965822686416e-01 1.067763659906248302e-01 -4.873683273480538536e-01 -3.998697104788249135e-01 -1.544615502562577125e-01 7.279711907864034881e-01 0.000000000000000000e+00 0.000000000000000000e+00 0.000000000000000000e+00
1.000000000000000021e-02 -3.214944417141089167e-02 -2.962639403745220834e-01 -6.292706629064267476e-01 2.194328063384974215e+00 7.107827763901409801e-01 -1.905029318244766179e+00 0.000000000000000000e+00 0.000000000000000000e+00 0.000000000000000000e+00
1.000000000000000021e-02 2.161360572783098455e+00 1.000994039547858261e+00 5.773580668051294662e-01 6.012708380080983295e-01 7.944048988994019123e-01 2.539340605256064642e-01 0.000000000000000000e+00 0.000000000000000000e+00 0.000000000000000000e+00
1.000000000000000021e-02 -4.456320631772351937e-01 -1.689207208617512501e+00 -2.620412323492129492e+00 -1.673722601304282465e-01 6.599626634488524601e-01 9.469387699176399220e-01 0.000000000000000000e+00 0.000000000000000000e+00 0.000000000000000000e+00
1.000000000000000021e-02 1.029705697150357979e+00 6.357507114952424265e-01 1.120096910268369994e+00 1.570076903790433409e+00 1.368028394620943944e+00 1.656985376803159271e+00 0.000000000000000000e+00 0.000000000000000000e+00 0.000000000000000000e+00
1.000000000000000021e-02 -7.445200996196806864e-01 -1.425290407357190092e-01 -1.525931412025780809e-01 7.422104351930906008e-01 -2.131379044963436886e+00 -2.179242549453840050e-01 0.000000000000000000e+00 0.000000000000000000e+00 0.000000000000000000e+00
1.000000000000000021e-02 -2.879066558435836032e-02 1.862536403495439474e-01 4.676732304409000895e-01 7.442681683445494523e-01 5.485447552868092380e-01 1.262285552371775088e+00 0.000000000000000000e+00 0.000000000000000000e+00 0.000000000000000000e+00
1.000000000000000021e-02 9.909077503243242380e-02 -1.379372689545734110e+00 -5.956715262644505238e-01 1.280950279582320217e+00 6.299301743859744285e-01 1.467935307813528434e+00 0.000000000000000000e+00 0.000000000000000000e+00 0.000000000000000000e+00
1.000000000000000021e-02 -5.061127142362182862e-01 1.169465767660316513e-01 -1.133689178142401000e+00 5.525190011412665081e-01 3.341967174064401358e-01 1.164700583109898657e+00 0.000000000000000000e+00 0.000000000000000000e+00 0.000000000000000000e+00
1.000000000000000021e-02 6.859792496695628072e-01 5.137479791793139183e-01 -1.136915377936065230e+00 3.828638347796331498e-01 -6.343352792628866865e-01 2.500416281102335603e+00 0.000000000000000000e+00 0.000000000000000000e+00 0.000000000000000000e+00
1.000000000000000021e-02 -6.710516955841855369e-01 -5.590527696681381054e-01 -4.000618252270055630e-01 -1.877377261370662964e+00 4.497204694181068385e-01 8.002939779926342423e-01 0.000000000000000000e+00 0.000000000000000000e+00 0.000000000000000000e+00
1.000000000000000021e-02 -1.032181702626409070e-01 -4.828794608131812827e-01 -2.057138342293682864e+00 -7.165882439019993777e-01 -1.118032023363789929e+00 3.072745269229075205e-01 0.000000000000000000e+00 0.000000000000000000e+00 0.000000000000000000e+00
1.000000000000000021e-02 -5.779108762247842090e-01 -5.636696245444972053e-01 -3.351207025659581618e-01 -2.563927469125240610e-01 -8.107700750385613553e-01 2.027937015709548874e+00 0.000000000000000000e+00 0.000000000000000000e+00 0.000000000000000000e+00
1.000000000000000021e-02 2.850891828361030306e-02 5.044839199482032965e-01 1.787382982604093673e+00 1.029416726456461761e+00 9.997817590293163192e-01 -2.112121400020414708e+00 0.000000000000000000e+00 0.000000000000000000e+00 0.000000000000000000e+00
1.000000000000000021e-02 -6.017854601975883844e-01 2.052969138518742742e+00 8.635858901539440746e-02 1.277345971733728547e+00 3.576324978515887376e-01 5.414483484233028054e-01 0.000000000000000000e+00 0.000000000000000000e+00 0.000000000000000000e+00
1.000000000000000021e-02 -1.805037561306320482e-02 2.592179797882189218e-01 5.237166032927939585e-03 9.684439517803897779e-01 -9.588259521667079621e-01 9.489758142100865879e-01 0.000000000000000000e+00 0.000000000000000000e+00 0.000000000000000000e+00
1.000000000000000021e-02 -1.417742008750114024e+00 -1.059267613911136330e+00 -1.285530014089770745e-01 7.752924118362819472e-02 8.917913065380708160e-01 4.312800614529014309e-01 0.000000000000000000e+00 0.000000000000000000e+00 0.000000000000000000e+00
1.000000000000000021e-02 -7.284873301356010744e-01 5.564844067349886680e-01 4.771447435367635048e-01 -4.023827077272669750e-01 -2.062508981902419158e+00 -1.750557937329827674e+00 0.000000000000000000e+00 0.000000000000000000e+00 0.000000000000000000e+00
1.000000000000000021e-02 2.207279982306107780e+00 -5.154636189689482118e-01 -2.900562750340371365e-02 -6.591636872814163883e-01 1.216623405305388816e+00 7.782929043751242171e-01 0.000000000000000000e+00 0.000000000000000000e+00 0.000000000000000000e+00
1.000000000000000021e-02 1.825412784343727779e+00 -2.251670020248752735e-01 -2.686500914534416751e+00 1.285119105559229036e+00 -2.199143039825977031e-01 3.141854126503719202e-01 0.000000000000000000e+00 0.000000000000000000e+00 0.000000000000000000e+00
1.000000000000000021e-02 -5.846595173566578874e-01 3.950996846143622898e-01 1.364813945865059441e+00 8.543303483526399900e-01 -3.214407446959853809e-01 -4.569313794870462353e-02 0.000000000000000000e+00 0.000000000000000000e+00 0.000000000000000000e+00
1.000000000000000021e-02 1.428521754828562473e+00 -2.238906805985104054e+00 -2.382881538796260135e-01 -1.507858850788290850e+00 -9.337537124401507072e-01 1.772873756272761447e-01 0.000000000000000000e+00 0.000000000000000000e+00 0.000000000000000000e+00
1.000000000000000021e-02 -7.630425891737080413e-01 -5.259856426707861798e-01 1.960342503640933209e+00 -5.948797735545581222e-01 5.544144089811724463e-01 -7.346413678264261948e-01 0.000000000000000000e+00 0.000000000000000000e+00 0.000000000000000000e+00
1.000000000000000021e-02 -3.290958199877949686e-02 7.791063617780640271e-01 4.037183170229537432e-01 1.201107081470207394e+00 -5.132205765964534816e-01 4.577952343692938686e-01 0.000000000000000000e+00 0.000000000000000000e+00 0.000000000000000000e+00
1.000000000000000021e-02 1.070152169413627119e+00 5.646062188335916332e-01 3.398623691223862098e-02 -1.900039820240109201e+00 2.882081931276692544e+00 -8.831039702209458886e-01 0.000000000000000000e+00 0.000000000000000000e+00 0.000000000000000000e+00
1.000000000000000021e-02 3.315424415028754845e-01 1.052541215183172701e-01 8.492399185630214453e-02 7.717036672577008982e-01 1.118577110621291837e+00 1.959578275267229858e-02 0.000000000000000000e+00 0.000000000000000000e+00 0.000000000000000000e+00
1.000000000000000021e-02 1.985161543039996868e-01 5.850360027787470107e-01 -2.814274710466928564e+00 5.228394567807597149e-01 -9.874847102787849273e-01 -1.707544232932259598e-01 0.000000000000000000e+00 0.000000000000000000e+00 0.000000000000000000e+00
1.000000000000000021e-02 6.272609766435627288e-02 -2.019093256533919245e+00 9.842653443187673323e-01 5.665644635733846357e-01 1.171398328929810218e+00 -9.724247853449827783e-01 0.000000000000000000e+00 0.000000000000000000e+00 0.000000000000000000e+00
1.000000000000000021e-02 1.136552170559729236e+00 -9.211267665424979212e-01 4.969788871856814505e-01 5.477041052815122546e-01 4.248338694016518535e-01 -1.405131320799500316e-01 0.000000000000000000e+00 0.000000000000000000e+00 0.000000000000000000e+00
1.000000000000000021e-02 1.332428833944522717e+00 4.554693045500411985e-01 5.715048207099768796e-01 -2.199808173888244123e-01 1.751114663680824801e+00 9.137377419987449123e-01 0.000000000000000000e+00 0.000000000000000000e+00 0.000000000000000000e+00
1.000000000000000021e-02 8.644556621547407893e-01 1.357561940259069733e+00 8.609124479702253696e-01 4.467519037738428844e-01 1.434898420265269703e+00 -1.043349677719324298e+00 0.000000000000000000e+00 0.000000000000000000e+00 0.000000000000000000e+00
1.000000000000000021e-02 9.615290257002018226e-01 1.128828303506636543e-01 7.173715780224676486e-01 -9.621606524366272950e-01 6.470740699082472291e-02 2.674631120766255560e-02 0.000000000000000000e+00 0.000000000000000000e+00 0.000000000000000000e+00
1.000000000000000021e-02 -7.336085369750117158e-01 -4.275632134239218951e-01 -1.477760316459875378e+00 -1.477861954192926097e+00 1.228603875277584523e+00 -1.157462280912182340e-01 0.000000000000000000e+00 0.000000000000000000e+00 0.000000000000000000e+00
1.000000000000000021e-02 1.251460820542189101e+00 6.905342009108632606e-01 4.681632027472926727e-01 -8.588152063661967928e-01 1.192512364613195430e+00 1.358216923116613684e+00 0.000000000000000000e+00 0.000000000000000000e+00 0.000000000000000000e+00
1.000000000000000021e-02 3.274302562067345490e-01 -1.222351901232217264e+00 8.896758441839210940e-01 -4.807749158807659295e-01 -1.470500041956528614e+00 -1.306208623357474341e+00 0.000000000000000000e+00 0.000000000000000000e+00 0.000000000000000000e+00
1.000000000000000021e-02 -1.484897333675048170e+00 2.190152563614753689e-01 1.782473701816212230e+00 6.440113331682146836e-01 -1.652542443554212981e-01 -2.294488229041602989e-01 0.000000000000000000e+00 0.000000000000000000e+00 0.000000000000000000e+00
1.000000000000000021e-02 5.608727867839846670e-01 -3.129705002220858900e-02 -2.482578324023529404e-01 1.191359715318369483e+00 1.235011231750733213e-01 -1.744711022401233658e+00 0.000000000000000000e+00 0.000000000000000000e+00 0.000000000000000000e+00
1.000000000000000021e-02 -2.347389599717950581e+00 2.469521169975084363e-01 -4.618232181785575929e-01 6.779564136048179535e-01 8.047919271093174551e-03 1.253245947083054812e+00 0.000000000000000000e+00 0.000000000000000000e+00 0.000000000000000000e+00
1.000000000000000021e-02 -1.143651923029645578e+00 -2.104258528360773983e-01 -1.601695827238901026e+00 6.954070813922732519e-01 -1.935885093311310590e-01 -3.670474972900238941e-01 0.000000000000000000e+00 0.000000000000000000e+00 0.000000000000000000e+00
1.000000000000000021e-02 3.716976365114321723e-01 8.297902320660652808e-01 1.149377403281654386e+00 -1.502271151491576084e+00 1.290567621684002519e+00 -3.584735888827416672e-01 0.000000000000000000e+00 0.000000000000000000e+00 0.000000000000000000e+00
1.000000000000000021e-02 1.436106016456132117e+00 8.635490720758642880e-02 1.453348153434629753e+00 6.447453569463819090e-01 5.204440385093022092e-01 4.876411425861590376e-01 0.000000000000000000e+00 0.000000000000000000e+00 0.000000000000000000e+00
1.000000000000000021e-02 -2.062955998314211781e-01 -2.339865379777056109e+00 -7.262068621885403585e-01 -1.056441615649400978e+00 -1.922843398799544135e+00 -1.984888121663035687e-01 0.000000000000000000e+00 0.000000000000000000e+00 0.000000000000000000e+00
1.000000000000000021e-02 -3.619751119408339268e-01 -1.777936164973198396e-02 4.197858011767409692e-01 -6.459396639371266513e-01 -3.640401620104196101e-01 -3.062298712450932658e-01 0.000000000000000000e+00 0.000000000000000000e+00 0.000000000000000000e+00
1.000000000000000021e-02 1.897903655537450454e-02 3.055260760883109494e-01 6.045832131456327918e-01 7.139845972303889843e-01 -1.256419907360785682e-01 -1.618088140270947939e+00 0.000000000000000000e+00 0.000000000000000000e+00 0.000000000000000000e+00
1.000000000000000021e-02 5.236657301002217713e-02 1.425139849220974142e+00 1.605039547501595942e+00 5.829902518967349234e-01 -6.506107393637572400e-01 -2.312180686496617454e+00 0.000000000000000000e+00 0.000000000000000000e+00 0.000000000000000000e+00
1.000000000000000021e-02 -8.151434046157169933e-01 -1.811015837124887312e-02 3.669188780993430377e-01 -1.282135089081375634e+00 -3.361526039721782766e-01 3.985244963358693382e-01 0.000000000000000000e+00 0.000000000000000000e+00 0.000000000000000000e+00
1.000000000000000021e-02 -2.468706881017165844e-01 3.416319269912636014e-01 -1.624156970407767187e+00 5.763691464772138784e-02 2.421547455099419821e+00 5.705240170420690093e-01 0.000000000000000000e+00 0.000000000000000000e+00 0.000000000000000000e+00
1.000000000000000021e-02 7.782855179805878709e-01 -4.724362095826182273e-01 4.007668892263557825e-01 -5.918100822122057680e-01 -3.754012529330652548e-02 -5.473821419705364733e-01 0.000000000000000000e+00 0.000000000000000000e+00 0.000000000000000000e+00
1.000000000000000021e-02 -4.454114508063911071e-01 1.186847925588638275e-01 -2.435731523202747384e-01 -8.641165324653197199e-01 -1.446318716205676536e+00 -1.627404021753384444e-01 0.000000000000000000e+00 0.000000000000000000e+00 0.000000000000000000e+00
1.000000000000000021e-02 1.936178579500204222e+00 5.712230408141000249e-01 1.714449774326953557e+00 1.799455084085148426e+00 4.130801628748639320e-01 7.334780564040754847e-01 0.000000000000000000e+00 0.000000000000000000e+00 0.000000000000000000e+00
1.000000000000000021e-02 -6.814369580792638548e-01 3.981668722586724218e-01 4.195339017481772848e-01 -1.352848340927067960e+00 -1.547839875906213525e+00 -5.411025893294836298e-01 0.000000000000000000e+00 0.000000000000000000e+00 0.000000000000000000e+00
1.000000000000000021e-02 5.180468074363656639e-01 6.575344073305641190e-01 5.993398399271531174e-01 -2.768912755649473312e-02 4.253993317246106964e-01 -7.640329608035520970e-01 0.000000000000000000e+00 0.000000000000000000e+00 0.000000000000000000e+00
1.000000000000000021e-02 6.576729715021414902e-02 -9.840841916898828146e-01 5.210820934153098660e-01 5.679150826847136069e-02 -8.786135163461823439e-01 -1.000203185941153095e+00 0.000000000000000000e+00 0.000000000000000000e+00 0.000000000000000000e+00
1.000000000000000021e-02 2.947136834511225878e-01 -3.666262123230347725e-01 -2.695214039121615057e-01 -9.702801441300568097e-01 4.433318887763137289e-02 -2.185435035546025584e-01 0.000000000000000000e+00 0.000000000000000000e+00 0.000000000000000000e+00
1.000000000000000021e-02 -1.917255146418198830e+00 3.046693622134726276e-01 1.120206347794882484e+00 3.112835537362859673e-01 2.669729989601957731e-01 3.579393782156889414e-01 0.000000000000000000e+00 0.000000000000000000e+00 0.000000000000000000e+00
1.000000000000000021e-02 -1.052148351967691742e+00 -9.217019307412194218e-02 1.423489344481988716e+00 -5.588404949850025449e-01 3.699696144124060559e-01 -8.180211767413482216e-01 0.000000000000000000e+00 0.000000000000000000e+00 0.000000000000000000e+00
1.000000000000000021e-02 4.468961674735950629e-01 1.360852739862957739e+00 2.178698332325129106e-01 3.676687438471510361e-01 -1.393190643669236062e+00 -1.429695875502942082e+00 0.000000000000000000e+00 0.000000000000000000e+00 0.000000000000000000e+00
1.000000000000000021e-02 -5.261554700278436858e-01 6.737265179224906086e-01 -1.424206165977868754e-01 7.967660092167124786e-01 -8.256492230332310722e-01 8.498436428539390963e-01 0.000000000000000000e+00 0.000000000000000000e+00 0.000000000000000000e+00
1.000000000000000021e-02 5.372782631824338795e-01 7.252523001871578057e-01 4.317486505988177292e-01 2.167758437947436001e-01 1.805282660586920107e+00 3.429004931795414102e-01 0.000000000000000000e+00 0.000000000000000000e+00 0.000000000000000000e+00
1.000000000000000021e-02 -4.481471053205282606e-01 7.333786818108909422e-01 -1.506754048684432412e+00 4.121631936073500424e-01 -1.155033675353341227e+00 -2.699556890420020672e-01 0.000000000000000000e+00 0.000000000000000000e+00 0.000000000000000000e+00
1.000000000000000021e-02 5.522823171390270902e-01 -5.891882274435388256e-01 8.821243077545312117e-01 -1.795267311969175050e-01 -1.485768167952177476e+00 -2.061142675685030401e+00 0.000000000000000000e+00 0.000000000000000000e+00 0.000000000000000000e+00
1.000000000000000021e-02 1.602512302150592260e+00 -1.225318984485174845e+00 -6.629030951317016473e-01 -1.390003315601093525e-01 -1.486195898163880980e+00 3.386802087138451878e-01 0.000000000000000000e+00 0.000000000000000000e+00 0.000000000000000000e+00
1.000000000000000021e-02 2.017577688527605329e-01 -7.705065815386450412e-01 -1.497295111408101898e+00 9.343661836930735598e-01 3.328843160653095490e-01 4.981051520739812610e-01 0.000000000000000000e+00 0.000000000000000000e+00 0.000000000000000000e+00
1.000000000000000021e-02 9.779158494556425274e-02 1.416929160174462965e-01 -8.612704756268975137e-01 9.748022142749047658e-01 9.145785104035325519e-01 -1.285878457462750202e-01 0.000000000000000000e+00 0.000000000000000000e+00 0.000000000000000000e+00
1.000000000000000021e-02 -2.232952533715188981e-01 1.472875021478186719e+00 -5.915265664061953865e-01 -4.185692408805858356e-01 -5.686018886090801749e-02 1.411197429960906691e+00 0.000000000000000000e+00 0.000000000000000000e+00 0.000000000000000000e+00
1.000000000000000021e-02 1.373069970299851950e-01 -6.121969408440873783e-01 4.288797147021050638e-01 -7.588838126108558013e-01 2.134506933351292712e+00 9.517182235515490030e-01 0.000000000000000000e+00 0.000000000000000000e+00 0.000000000000000000e+00
1.000000000000000021e-02 -2.312890451128884195e-01 2.450658284658256691e-01 -1.106642157859219155e+00 -1.159594623962023840e+00 -1.473113916264233270e+00 8.327899855378163851e-02 0.000000000000000000e+00 0.000000000000000000e+00 0.000000000000000000e+00
1.000000000000000021e-02 -7.787123620547419245e-01 5.159868435336951720e-01 -8.894399151823126903e-01 1.846579430498980434e+00 -9.545832305535426610e-01 2.951179015379077133e-02 0.000000000000000000e+00 0.000000000000000000e+00 0.000000000000000000e+00
1.000000000000000021e-02 -6.106353626575360405e-01 3.354825952218375984e-01 5.453790968723901678e-01 -2.722479314296300412e+00 4.579151648696708765e-01 2.068959033379004886e+00 0.000000000000000000e+00 0.000000000000000000e+00 0.000000000000000000e+00
1.000000000000000021e-02 1.520675904801898903e-01 7.298693509933157353e-01 -5.799409087747347397e-02 -1.450120355357735091e+00 2.047030866559453877e+00 4.999694252258388150e-01 0.000000000000000000e+00 0.000000000000000000e+00 0.000000000000000000e+00
1.000000000000000021e-02 1.977604329041940057e+00 -5.277634047816912588e-01 1.734117196376899483e-01 -7.970054731913972512e-01 4.552244692074211563e-01 -1.227124030095430696e+00 0.000000000000000000e+00 0.000000000000000000e+00 0.000000000000000000e+00
1.000000000000000021e-02 1.097927952108409322e+00 8.447399830437420098e-02 -2.107685935309083991e+00 -8.819116829268160984e-01 1.313368786721882620e+00 -1.607174883746538940e+00 0.000000000000000000e+00 0.000000000000000000e+00 0.000000000000000000e+00
1.000000000000000021e-02 -1.388340784875872425e+00 -1.489693294763557274e+00 9.232851950299361676e-02 4.417257864483559726e-01 -1.632337254811235816e+00 -1.542324671168659178e-01 0.000000000000000000e+00 0.000000000000000000e+00 0.000000000000000000e+00
1.000000000000000021e-02 -1.013143681621978542e+00 -4.814437805226833289e-01 2.234823141218244824e-01 6.181763355422635886e-01 -8.259327938767240251e-01 -9.254180552689188488e-01 0.000000000000000000e+00 0.000000000000000000e+00 0.000000000000000000e+00
1.000000000000000021e-02 -3.237961854007803675e-01 4.812684805191926873e-01 -2.116179601689073930e+00 1.019604598624779812e-01 -8.775027698109885699e-02 -8.497306517122270586e-01 0.000000000000000000e+00 0.000000000000000000e+00 0.000000000000000000e+00
1.000000000000000021e-02 2.847884754452068456e+00 1.586580084255213130e+00 -2.848986331763867508e-01 1.648498190488969950e+00 -1.755456741122581210e+00 4.291709215306830916e-01 0.000000000000000000e+00 0.000000000000000000e+00 0.000000000000000000e+00
1.000000000000000021e-02 5.963132646281381621e-01 1.175869170300575528e-01 -1.162510887134045878e-01 -1.500130311526655547e+00 4.018491438351375344e-01 1.685890771887228912e+00 0.000000000000000000e+00 0.000000000000000000e+00 0.000000000000000000e+00
1.000000000000000021e-02 9.641275831890484538e-01 1.046010801743807894e+00 2.368352365393635584e-01 1.243784702831087774e-01 -6.925951084891516230e-01 -2.647720052271929636e-01 0.000000000000000000e+00 0.000000000000000000e+00 0.000000000000000000e+00
1.000000000000000021e-02 -5.567279946745893326e-01 -1.273617627346129155e-01 2.281570166027663271e-01 1.944983938961894809e+00 -1.896444324660381819e-01 2.744220123785889864e-01 0.000000000000000000e+00 0.000000000000000000e+00 0.000000000000000000e+00
1.000000000000000021e-02 8.366504821616901899e-02 -1.331652155691670503e+00 -1.157629215047368126e-01 -6.223638308628527405e-01 1.323846498485172107e+00 5.503952986352282917e-01 0.000000000000000000e+00 0.000000000000000000e+00 0.000000000000000000e+00
1.000000000000000021e-02 -1.336006416023998444e-01 -2.065975207955533799e-01 -3.544252296591089979e-01 -4.168243623198055192e-01 1.051126782460969356e+00 -1.373103987369280521e+00 0.000000000000000000e+00 0.000000000000000000e+00 0.000000000000000000e+00
1.000000000000000021e-02 1.496445963299863458e+00 -3.032927250198841351e-01 5.445138375694419386e-01 -1.965353886928066451e+00 1.617769427870250354e+00 1.838227460440503336e+00 0.000000000000000000e+00 0.000000000000000000e+00 0.000000000000000000e+00
1.000000000000000021e-02 1.468823288353062306e+00 6.631772804773852781e-02 6.048815423533604463e-01 1.383770719173098795e+00 -1.882227964041857660e-01 -6.010151572895654493e-01 0.000000000000000000e+00 0.000000000000000000e+00 0.000000000000000000e+00
1.000000000000000021e-02 1.685477806456794569e+00 -1.498965860409833852e-02 6.049276707385493612e-01 -8.754782615335000573e-01 2.485949093519915776e-01 -1.674460095791666103e-01 0.000000000000000000e+00 0.000000000000000000e+00 0.000000000000000000e+00
1.000000000000000021e-02 4.692369393188738913e-01 1.294255838384409829e+00 5.478141743418983856e-01 5.755453678632247438e-01 -2.523437088704189590e-01 -5.467568933102534556e-01 0.000000000000000000e+00 0.000000000000000000e+00 0.000000000000000000e+00
1.000000000000000021e-02 2.311987342659139522e+00 -1.166079668119840651e+00 -1.200875386594818170e-02 9.058318433003569314e-01 -7.759880876024672913e-01 1.538488907196441158e+00 0.000000000000000000e+00 0.000000000000000000e+00 0.000000000000000000e+00
1.000000000000000021e-02 -6.273350189854064451e-01 5.599429525290088305e-01 1.119255506634085906e+00 2.082841354663123590e-01 1.768359823019741484e+00 1.555217744400782642e+00 0.000000000000000000e+00 0.000000000000000000e+00 0.000000000000000000e+00
1.000000000000000021e-02 1.159038900618421408e+00 1.437273682688705367e+00 -1.078414407537574116e+00 1.636357784016075900e+00 4.633589474323240864e-01 -2.539318298169024324e+00 0.000000000000000000e+00 0.000000000000000000e+00 0.000000000000000000e+00
1.000000000000000021e-02 -2.280574433135571233e-01 4.356459858642894867e-01 -7.524485972092750385e-01 -1.741705902021152053e+00 2.461036593374905934e-01 8.505547349525880430e-01 0.000000000000000000e+00 0.000000000000000000e+00 0.000000000000000000e+00
1.000000000000000021e-02 5.197272873428352424e-01 -1.012468528625722453e+00 -1.894974325874011933e+00 6.834281038833469601e-01 4.666146183721032736e-01 3.622567071822294649e-01 0.000000000000000000e+00 0.000000000000000000e+00 0.000000000000000000e+00
1.000000000000000021e-02 1.597069548061282429e+00 7.211600762466009729e-02 -2.283256569183381712e-01 1.560511959228279011e+00 1.121728882447521752e-01 -4.605560150725905855e-01 0.000000000000000000e+00 0.000000000000000000e+00 0.000000000000000000e+00
1.000000000000000021e-02 1.358446332539861912e+00 -2.596588982815573043e-01 -8.367520836442463722e-03 3.030639214638877754e-01 -1.167322132978745985e+00 4.058731113642303212e-01 0.000000000000000000e+00 0.000000000000000000e+00 0.000000000000000000e+00
1.000000000000000021e-02 1.094165428989586797e+00 1.207241353483026192e+00 -3.241469798279734693e-01 -4.026273428849391212e-01 -7.193713281841008778e-01 -1.994000302814894043e+00 0.000000000000000000e+00 0.000000000000000000e+00 0.000000000000000000e+00
1.000000000000000021e-02 4.130304947394829174e-02 -7.772491560060498239e-01 -2.437584976975850914e-01 4.967165097957140785e-01 6.973726718949675440e-01 5.086288945665803363e-01 0.000000000000000000e+00 0.000000000000000000e+00 0.000000000000000000e+00
1.000000000000000021e-02 -3.499324830752150728e-01 -1.233139234506600568e+00 -1.119762022614324337e+00 -3.534977979364545830e-01 2.300572409688300457e+00 -1.339049037803295761e+00 0.000000000000000000e+00 0.000000000000000000e+00 0.000000000000000000e+00
1.000000000000000021e-02 -6.125778039743861036e-01 6.362684105995571882e-01 5.840819976305797745e-01 7.999412968395672174e-02 -4.849891974951589524e-01 8.920729212175446676e-01 0.000000000000000000e+00 0.000000000000000000e+00 0.000000000000000000e+00
1.000000000000000021e-02 -1.154432060802693893e+00 -2.326438340718127162e-01 -1.009575401220901503e+00 -1.853572601627239136e+00 1.233216338776891741e+00 2.015273263284797611e+00 0.000000000000000000e+00 0.000000000000000000e+00 0.000000000000000000e+00
1.000000000000000021e-02 -1.151876579802812106e+00 -2.474163403169510056e-01 6.873431517523129197e-02 -5.501449670998309616e-01 9.846828508421663351e-01 5.069507262428303296e-01 0.000000000000000000e+00 0.000000000000000000e+00 0.000000000000000000e+00
1.000000000000000021e-02 -5.308386060748480073e-01 -6.740826869018200496e-01 -1.000613004892492386e+00 -5.336182922717079835e-01 -3.179707225482297783e-01 5.815141504322497434e-01 0.000000000000000000e+00 0.000000000000000000e+00 0.000000000000000000e+00
1.000000000000000021e-02 -5.512797343779481107e-02 2.143764190532977121e-01 -2.802126045586095793e-01 -6.506344072778784682e-01 -7.750486407252317189e-01 -1.517328926742640638e+00 0.000000000000000000e+00 0.000000000000000000e+00 0.000000000000000000e+00
