# mass x y z vx vy vz ax ay az
1.000000000000000000e+00 4.996294755753607486e-01 4.462661697578996778e-01 1.816461226619582314e-01 6.712350686362432706e-01 6.027074392482673071e-01 8.015719358966644226e-01 2.464311712456904724e-01 5.205530681484877853e-01 7.492174087075633704e-01
1.000000000000000000e+00 3.755358438514984076e-01 3.887729923852150105e-01 7.425400844822430679e-01 2.396973665949629906e-01 2.109953254094371067e-01 8.999679326066357676e-01 3.759562540386085505e-01 6.249277647460413920e-01 8.813864750129594139e-01
1.000000000000000000e+00 7.199928240647832656e-01 8.517868985404717375e-01 8.948939960854752629e-01 7.809970348139387841e-01 5.567713829021769811e-02 3.430847668179508592e-01 8.848491196462693331e-02 1.611622013048034097e-01 1.521529983232706718e-01
1.000000000000000000e+00 3.274462423536428357e-02 5.400227215689492599e-01 4.909175583040018553e-01 5.520016167446216704e-01 4.663923469300149671e-01 4.304038285651305973e-01 2.723974480427864275e-01 7.689439232466146468e-01 3.866768979783600235e-01
1.000000000000000000e+00 4.180508795905875097e-01 3.531674854246529272e-01 2.934774589061265315e-01 1.754104379378657041e-01 3.106587931683478798e-01 8.251430255570462169e-01 7.013348910654656487e-01 4.847355773219914621e-01 9.189124847079043201e-01
1.000000000000000000e+00 7.231524208374972007e-01 1.112048327201287101e-02 6.983188423156336810e-01 9.283881993291765999e-01 7.502877492681476745e-01 8.526673020818520410e-01 4.869029837655336479e-02 6.115377862473762027e-01 5.168699874181551523e-01
1.000000000000000000e+00 2.090001902545747248e-01 6.173944288841768380e-01 9.222010821264942093e-01 4.455028735835254716e-01 7.591512006401508472e-01 8.633493053737821832e-01 9.271172027128975479e-01 1.521259757070063667e-01 3.797951038874420870e-01
1.000000000000000000e+00 6.939920361514619884e-01 7.320726667458036241e-01 9.254284401222709899e-01 9.435112392655750080e-01 8.313493929962504358e-01 5.517007726486160557e-01 4.518240181637003250e-01 1.556399440148381608e-01 3.750892782173459450e-01
1.000000000000000000e+00 1.645047242320282210e-01 3.673349010332243036e-01 7.655671919476516596e-01 6.320700068890251488e-01 5.679998900767868619e-03 5.873540438958090304e-01 2.181632995754742010e-01 7.188067738462806666e-01 7.660956716099429631e-01
1.000000000000000000e+00 2.740673340623172027e-01 8.026629554218300822e-01 4.794431860141941115e-01 9.459621137679351532e-01 1.517806344815858521e-01 8.934010718660830852e-01 9.692784634223582385e-01 9.701427587129273222e-01 4.370944214779257653e-01
1.000000000000000000e+00 2.344795869659221932e-01 2.121436712901340060e-01 8.453790766480205887e-01 6.385811096277772547e-01 1.223510119937138985e-01 8.008312059974577179e-01 8.296260939217183772e-01 8.284092528894437812e-01 7.239257225140224294e-01
1.000000000000000000e+00 8.313138000977571274e-02 5.700779830406693671e-01 5.315592795759157552e-01 6.371197582462231335e-01 6.939258233251541785e-01 4.792162765971579308e-01 2.406304198599579225e-01 2.371218875405682880e-01 5.213829685644598699e-01
1.000000000000000000e+00 7.732502630507218644e-01 9.587595010693851227e-01 8.471158378411592915e-01 3.795291299753994485e-01 3.405665187262529869e-02 3.961137675869869090e-01 7.618117448876444708e-01 5.402446599678890626e-01 6.023887376326231280e-02
1.000000000000000000e+00 5.687879044879282642e-01 6.645246713584352927e-01 8.092240161627055617e-01 6.865022016618979039e-01 1.470155572423434975e-01 5.040591935608844665e-01 7.527773445992864687e-01 6.308014286101373269e-01 9.079629105279628520e-01
1.000000000000000000e+00 7.197936247707864554e-01 5.234266580195470198e-01 1.773260376405852989e-01 2.629929913396688024e-01 5.749469941714151489e-01 1.003895552602418473e-01 9.204172827358737541e-01 2.217116814369761713e-01 1.924814496103451900e-01
1.000000000000000000e+00 6.074053040398041947e-02 7.824372353259347879e-01 5.859458246181392660e-01 1.250050563812681315e-01 7.564456206466979582e-01 3.339471717920271532e-01 2.393334817241644652e-01 6.379745978000056494e-01 7.756510543996484319e-01
1.000000000000000000e+00 7.947875645212930662e-01 9.505350735960103048e-01 2.902102207760549613e-01 3.534882155056130459e-01 1.680344700427033322e-01 4.930998411812728133e-01 9.202965277715137171e-01 9.181769438176291542e-01 8.341010503484702632e-02
1.000000000000000000e+00 5.856398804768002675e-01 8.577778436601434242e-01 5.815541375805522994e-01 6.169653532816089525e-01 7.569953712514753130e-01 5.807961963002328254e-01 9.084198130980816188e-01 9.510495342662325102e-01 3.396065961297559666e-01
1.000000000000000000e+00 4.219848089791451429e-01 1.133030833574018015e-01 4.234259598520505596e-01 8.996648184784827862e-01 9.848532739258981650e-01 4.370205034610546990e-01 9.776271269021753474e-01 4.638927519315216852e-02 1.339939070445053115e-01
1.000000000000000000e+00 7.565059403074316791e-01 1.100825749454653613e-01 8.806308917159029193e-01 3.333197500031934712e-01 3.722141235277565130e-02 9.940212637957193120e-01 6.254236649040489926e-02 4.408853825175853558e-01 3.876808246031647753e-01
1.000000000000000000e+00 9.162542125462515008e-01 7.184643496847841204e-01 9.383029359583571205e-01 4.054324171355406792e-01 5.602453510283352811e-01 7.581591186512496305e-01 6.095784397185121106e-01 5.121502185215858205e-01 7.934916269325873461e-01
1.000000000000000000e+00 3.722338020979898410e-01 2.463506282510352641e-03 4.194971207690312287e-02 3.857947954904226151e-01 2.945769067591547108e-01 6.984903665087879299e-01 3.599237574600632206e-01 3.634196082536668149e-01 9.139308692375600618e-01
1.000000000000000000e+00 8.838295280425388922e-01 2.442840109619529576e-01 4.493692594760037018e-01 3.490933407956448020e-01 6.232276921753646670e-01 5.826942909093892897e-01 7.596510814410897261e-01 8.646299650079534160e-01 9.366156281985972276e-01
1.000000000000000000e+00 9.490018500305118510e-01 5.862911543645975554e-01 1.591402074678951450e-01 4.324378043685933592e-01 2.978558896743916939e-01 2.598285633060811728e-01 1.133718779106721586e-01 1.356916570560824375e-01 7.779551613652107012e-01
1.000000000000000000e+00 5.231528024488496520e-02 8.389025868187253154e-01 7.181025611711173706e-01 4.941263613910125141e-01 2.920069878760339632e-01 1.349428760865422072e-01 7.482991217094060454e-01 2.562481716938120879e-01 4.731554664437453983e-02
1.000000000000000000e+00 3.387147939992988244e-01 8.427551709944439695e-01 6.649611113740603319e-01 1.751443749110287440e-01 8.650357932601937527e-02 9.324629114411592257e-01 4.229816841601732325e-01 6.254724858841774759e-01 1.641779998509058647e-01
1.000000000000000000e+00 5.723753361952189644e-01 1.792420806814581935e-01 3.477784922985635019e-01 1.727338998894270006e-01 1.403244729962564996e-01 4.734064596189575536e-01 1.997138907970874566e-02 2.772950750480149829e-01 6.959799315065356984e-01
1.000000000000000000e+00 6.858602239841272707e-01 8.787323675424452141e-02 2.438378431770187316e-01 1.223320484435497235e-01 3.324384719128961052e-01 1.821224092126789706e-01 7.374448857748194808e-02 4.136864976048501008e-01 3.116452175981720973e-01
1.000000000000000000e+00 4.603242089215509036e-02 9.216656397977451842e-02 2.922468874579375875e-02 4.242913720520494758e-01 1.455922326380436616e-01 9.741070161940178496e-01 2.494401386380107333e-02 6.035600697209663190e-01 2.079743301187225724e-01
1.000000000000000000e+00 9.329727931877808134e-01 5.052215946559570625e-01 9.279544364529599410e-01 2.195483903054205044e-01 2.388333088251971548e-01 6.142338448281807750e-01 3.537141780101515920e-01 8.537264152234331771e-01 8.766272781389772284e-01
1.000000000000000000e+00 5.561836569437924593e-01 3.737248943534376977e-01 9.312071217428573577e-01 9.161450312236461002e-01 6.309998857111671633e-01 1.961874469485760386e-01 5.105847092614902438e-01 1.279587418515149011e-01 1.891854107614940883e-01
1.000000000000000000e+00 3.330405976234471765e-01 4.634815549776577503e-01 5.483039786882500932e-01 3.519087633306555718e-01 7.041968248898305971e-01 9.615402262789671806e-01 6.786295472064810541e-01 3.036065236108350662e-01 6.039519312636426607e-01
1.000000000000000000e+00 1.084122044333682977e-01 8.757754277958028633e-01 5.380476475422737437e-01 3.034623380469085863e-01 2.800234113546218317e-01 9.797859164766942186e-01 5.108051783603969609e-01 8.579785700220585731e-01 7.281649472094624542e-01
1.000000000000000000e+00 9.702234381980034961e-03 1.936786230429643485e-02 7.907376695385892607e-02 2.701207552058449979e-01 4.497928781851305846e-01 7.610289238675042034e-01 8.393859239838494801e-01 4.663649107395889670e-01 6.512757169874106022e-01
1.000000000000000000e+00 5.366932195668195904e-01 2.045861154992747455e-01 1.444856985041310660e-01 2.455207862760282467e-01 9.241792573171311309e-01 5.258928342616253637e-02 9.631652127372355432e-01 8.958865431706156679e-01 5.372251661810324430e-01
1.000000000000000000e+00 3.944999519660025156e-01 8.859486711404919168e-01 1.993728007427310045e-01 8.572854455693531550e-01 4.856765761582896301e-01 9.311999019546347567e-01 4.951487941309538066e-01 7.378594382763284942e-01 6.174548093897125334e-02
1.000000000000000000e+00 6.430778291169765293e-01 7.737003659319174886e-02 7.946542717653571897e-01 1.899680776148138239e-01 3.979781883293576072e-01 8.595946483166587715e-01 4.541700565922335286e-02 2.357266295647946208e-01 4.134295165990351517e-01
1.000000000000000000e+00 1.386951407958628701e-01 1.047173153216383046e-01 7.299597648493330038e-01 3.061355343856000388e-01 6.857670723429986070e-01 9.959544384212848378e-02 7.778427587251903752e-01 5.543153109510402521e-01 9.270373187552097827e-01
1.000000000000000000e+00 4.795943896829859554e-01 8.969174453620691878e-01 7.031044819848109029e-02 4.209201748848231395e-01 2.805348572915724592e-01 6.333948167216965075e-01 6.776376067962639471e-01 3.662600249377584438e-01 8.452620213185536580e-01
1.000000000000000000e+00 4.741307648985869649e-01 4.044604420301718406e-01 7.764144040877257735e-01 6.759228386786049203e-01 5.991175885977479965e-01 7.154761479386103629e-01 4.431181950929318214e-01 7.583621421582370514e-01 4.475586390071079057e-01
1.000000000000000000e+00 1.409551265962381006e-01 2.858722389123069529e-02 9.101750039478544441e-01 2.750055277634366746e-02 7.583793206652459373e-01 9.525212623516309263e-01 8.333003242524490428e-01 3.335929410803291084e-01 8.560930651473497299e-02
1.000000000000000000e+00 8.946138102446525853e-01 4.518332382339785847e-01 7.686785079127993470e-01 6.700201894143790193e-01 2.242640695151960628e-01 5.196208733300303750e-01 2.282229137981510725e-01 3.927881007730225082e-01 9.214998222682324602e-02
1.000000000000000000e+00 3.950382113766458536e-01 6.105017703978256050e-01 7.575979278672241302e-01 7.081943456693895467e-01 9.882246952497500958e-01 9.145680308854788887e-01 4.359531214037033475e-01 2.562364423551641845e-01 2.657456994840482478e-01
1.000000000000000000e+00 7.330371113368310265e-01 4.132095339746416629e-01 6.488587469464668356e-02 1.949942037346233947e-01 7.923555423050598900e-01 1.100620765384845434e-01 3.717286106845871796e-01 5.342646645453730248e-02 2.200745846525764549e-02
1.000000000000000000e+00 3.476921315541230406e-01 9.476983576449743429e-01 7.351698826425622224e-01 2.718756518459632954e-01 2.948073971537225058e-01 9.297670974797911381e-01 9.288274778093963402e-02 1.505041077423041607e-01 5.395990443292759675e-01
1.000000000000000000e+00 7.548743517622898969e-01 8.939006209961848359e-01 3.504748805346021845e-01 6.253019097865083475e-01 3.922648748503617666e-01 3.535916952706186223e-02 8.367281545878718640e-01 4.498490814527470461e-01 5.163204494760506025e-01
1.000000000000000000e+00 1.376795752705552989e-01 1.337931669930941814e-01 5.086757666485539620e-01 2.690420365655342705e-01 3.279311899033396926e-01 7.548484399436379277e-01 7.216242716162307724e-01 4.754939250556232677e-01 1.938442927632185731e-01
1.000000000000000000e+00 1.273492668103702874e-01 4.352148423329923466e-01 2.243240965777104634e-01 9.036780670083245370e-01 7.271063734357150476e-01 7.125602158595767399e-02 5.969974698006862424e-01 1.601922521146028622e-01 3.955184742263910813e-01
1.000000000000000000e+00 2.122457590951845052e-01 7.589992599982881005e-01 4.305029494065386597e-01 7.687954479092391491e-01 6.036038377976118419e-01 9.534841002415515021e-01 8.994137466949447823e-02 7.785401747287650220e-01 9.056389840163736604e-02
1.000000000000000000e+00 3.320204965071753556e-01 7.725032623109159280e-01 7.479463292244571404e-01 7.110396117369343072e-01 4.966481778004130376e-01 9.272652962059523274e-01 3.212875254218884313e-01 7.762749971651738967e-01 6.341401504550223667e-01
1.000000000000000000e+00 3.850405604226072587e-01 2.749220568503989437e-01 4.406625429235511149e-02 5.055513896079832925e-03 9.112767864484718761e-01 6.388638233278995937e-01 8.615024316687822648e-01 5.721516723805665228e-01 9.986834698328069804e-01
1.000000000000000000e+00 9.596712314580176928e-01 8.606086561593203621e-01 8.522861185986186916e-01 5.797192778521695899e-01 9.324734383584449837e-01 6.958193784674634452e-01 3.890123812265983139e-01 2.353837205905762175e-01 7.253102795627008881e-02
1.000000000000000000e+00 9.415000127157336918e-01 1.309868187849325682e-01 3.737817802151250923e-01 4.547047745999759361e-01 4.292706967953322517e-01 7.312373120223759626e-01 8.347633408481781592e-01 4.296371715976327055e-01 1.005085107933190169e-01
1.000000000000000000e+00 1.174620719122124735e-01 1.696055024752692875e-01 8.763185175690096917e-01 1.685521302690143886e-01 8.491889094258401327e-01 4.259070952795281917e-01 8.290426958340488817e-01 1.223443182225517623e-01 6.370653451362562336e-01
1.000000000000000000e+00 5.879997761290617353e-01 6.766695821812938050e-01 2.116916681570558678e-01 6.274268205353626948e-01 3.450638190563785068e-01 4.141131506278242780e-01 4.410678519816867427e-01 1.542432017306706316e-01 3.095661305061461199e-01
1.000000000000000000e+00 4.258111234741409623e-01 4.968947387433079177e-01 4.545072981266249368e-01 3.792307050830556747e-03 7.773542947713070195e-01 2.137242348113813639e-01 5.560431326943918728e-01 4.614334580197657631e-01 9.249880129942249507e-01
1.000000000000000000e+00 1.060788194224636660e-01 9.709983970460316360e-01 6.012894042863696775e-01 2.346155019943152453e-02 6.950626613302536283e-01 5.084547335636604437e-01 7.501769200226637846e-02 1.835002810589233535e-01 3.941863085625209040e-01
1.000000000000000000e+00 7.668038740239546680e-01 9.074118415447496311e-01 3.461049281949641898e-01 7.102662864862241410e-01 8.927697730633280537e-01 3.894390021427052151e-01 4.651107719842527688e-01 4.902745030842434737e-01 2.250397081457267134e-01
1.000000000000000000e+00 2.469698048636435050e-01 3.346242459788235646e-01 3.270626528704662084e-01 8.967456209232960163e-02 5.885297493179020289e-02 7.566730211150889396e-01 9.155736901588777954e-01 9.188208339589423179e-01 2.768395803863469284e-01
1.000000000000000000e+00 1.828522089239770221e-02 6.713908738831371181e-01 4.861899194198771035e-03 5.761979959868079870e-01 7.208528100333931876e-01 3.615759352630294465e-01 7.421773739388030089e-01 3.924709054215459458e-01 8.853762885116426284e-01
1.000000000000000000e+00 5.844437805840785316e-01 4.335475302490757743e-01 9.365698123797037145e-01 3.300200123397890595e-01 4.811892169779763417e-01 4.694992593967735051e-01 5.308849985095217550e-01 9.811983058050169904e-01 2.507491453229072631e-01
1.000000000000000000e+00 5.938869864660115683e-01 6.826610307845024650e-01 7.282803268571681476e-01 6.396284771150773096e-02 9.350190937350959519e-01 5.719800313669735070e-01 7.241879303860682127e-01 6.129280194676505200e-01 4.696356141206728951e-01
1.000000000000000000e+00 2.115269858039992013e-01 4.961962401228340314e-01 9.852915923914180585e-01 4.174725505061124275e-01 9.857897381007667548e-01 7.825424932705964398e-01 1.222337821120642598e-01 5.794873195116451159e-01 3.441227190134391600e-01
1.000000000000000000e+00 8.887777644653148679e-01 8.828246182507116790e-01 1.696883120141041701e-01 1.816550223388051499e-01 9.339667246040220805e-01 5.614999796528874487e-01 8.905965092753197476e-01 2.631242394987233224e-01 5.036290191777397229e-01
1.000000000000000000e+00 2.612547719481184139e-01 4.262511988799786433e-01 2.340568883441862535e-02 6.164004130398987868e-01 5.983938382820265245e-01 3.494390177496001781e-01 1.181997657291903314e-01 3.800626491569236709e-01 1.733387985332084380e-01
1.000000000000000000e+00 5.548497186514064206e-01 8.846120085698737645e-01 4.876656082740183917e-01 1.388020089906235599e-01 2.257043238840910071e-01 8.134872077787260736e-01 6.678301055192316094e-01 7.976174517945804343e-01 8.180642627529225441e-01
1.000000000000000000e+00 9.279543653162470873e-01 2.275513994854079236e-01 8.195635157891414391e-01 1.621368937796711096e-01 5.134811854067082848e-01 7.283488840789608121e-01 5.189767702698447893e-01 3.848952554296138917e-01 3.148171702235139646e-01
1.000000000000000000e+00 8.718259786600294214e-01 5.007936095441143376e-01 4.754310374277407325e-01 1.821714913962909632e-01 2.348233078095759430e-01 5.070250949150942876e-01 3.339832041624191117e-02 5.328078189030638345e-02 5.858494398892317712e-01
1.000000000000000000e+00 5.187861624501918234e-01 8.461932413592754276e-01 8.857322349017925367e-01 2.522613510585793861e-01 6.683105647594808074e-01 3.135397126232908338e-01 8.110111825613397496e-02 1.985141777205746694e-01 5.245222856368941811e-01
1.000000000000000000e+00 4.898073499164338207e-01 1.263034648462311171e-01 9.673693286898069621e-01 4.369874374340058099e-01 7.321766080248526265e-01 8.007902737321321851e-01 6.768743683899152153e-01 3.223623379542228662e-02 6.694013979453602436e-01
1.000000000000000000e+00 9.497930636088964818e-01 4.741620462024939142e-01 5.591351607143474345e-01 2.873094982618148441e-01 1.267376403922650940e-01 6.843626135777423070e-01 9.734716562501792847e-01 1.586526781859755042e-01 7.407294487171423025e-01
1.000000000000000000e+00 6.347680361824307171e-01 1.642000185974187287e-01 4.856795865058506356e-01 6.600991054255759272e-01 9.730536136264733571e-02 6.360660324671548738e-01 6.419660356605050300e-02 6.396203719628438256e-01 1.792212630925547057e-01
1.000000000000000000e+00 1.806806079274846377e-01 9.091694265628625926e-01 9.447767563470746977e-01 5.998182470784758635e-01 5.162471545649496285e-01 5.853522321824590202e-01 4.948624794302364238e-01 4.883143375175333922e-01 9.400110808254074080e-01
1.000000000000000000e+00 7.054167903558896668e-01 3.735584373039160244e-01 6.235605342781626037e-01 3.327975902460416080e-01 7.038231947846598224e-01 3.191884811717776715e-01 4.846425066380234403e-01 6.751239791301515414e-01 6.034059070764506982e-01
1.000000000000000000e+00 3.369176539701628226e-01 9.843904134937544459e-01 3.830007530781003311e-01 2.336571800817718314e-01 7.645228242461454826e-02 3.260935601195820155e-01 9.315276294509282629e-01 1.293149830868980388e-01 2.445773195425882118e-02
1.000000000000000000e+00 4.453384139600851110e-01 9.968905746374142618e-01 6.697160282938906528e-01 5.447110437443645203e-01 8.637084298497257340e-01 7.097354302212327548e-01 5.028663217321278633e-01 1.174900169365263869e-01 9.561992799008872668e-01
1.000000000000000000e+00 2.512726766291151215e-02 2.777751532627324993e-01 4.537556276203683625e-01 7.649963242998689683e-01 6.757700544581966007e-01 7.005160270917420995e-01 4.305881105805362541e-01 1.761638816855893852e-01 7.449546411719307759e-01
1.000000000000000000e+00 1.717954590788982605e-01 1.177969685613913242e-01 9.647820314815641618e-01 6.886635600942120350e-01 5.796718170823086380e-01 3.650299593078000226e-01 9.379542962840125009e-01 2.518399134013251661e-01 4.752174022006991905e-01
1.000000000000000000e+00 1.405984039956447162e-01 8.411134911731047437e-01 8.365960328365967813e-01 1.776377857927323722e-01 6.704387724949408822e-01 3.618036339267527435e-02 7.549127885825364093e-01 3.023821553661251160e-01 6.664158298182238926e-01
1.000000000000000000e+00 8.452741948482891399e-01 8.778979344475353885e-01 3.322630052527366651e-01 3.722658086151031664e-01 9.536096799702701299e-01 3.007968184563886149e-01 7.860801698924760883e-01 5.526684835830336651e-01 5.602674518968406847e-01
1.000000000000000000e+00 6.142131261720185087e-01 4.940133089954934498e-01 3.363158604119901307e-01 5.786932966986634286e-01 6.434595499000657082e-01 2.223830182762023266e-01 7.984518426598432583e-01 3.682410824231527879e-01 8.540821066084345325e-01
1.000000000000000000e+00 4.910371028088310608e-01 4.551993434299786978e-01 3.764419778210660317e-01 6.126024012227145876e-01 6.298403813963640019e-01 2.046605911585926973e-01 7.295309622943341177e-01 1.149576928789148855e-01 5.370730049222804947e-01
1.000000000000000000e+00 1.447976076913121135e-01 7.888784540326900796e-01 4.825466895979584336e-01 1.755127282231906394e-01 2.756452409280201188e-01 9.497184178077904271e-01 7.516755833445946111e-01 9.148239059179339439e-01 5.037062653982882221e-01
1.000000000000000000e+00 8.815126420511082417e-01 2.480025459906108898e-01 1.880575472124459413e-01 1.329937527701979816e-01 9.533028082231005396e-01 3.570553407125671708e-01 9.885861892010400220e-01 2.813556923970061963e-02 1.932591133215180168e-01
1.000000000000000000e+00 8.245642565340158825e-01 2.469638053079706852e-01 9.626151208637940826e-01 7.093239279238817696e-01 1.595637168428687414e-02 2.131946941594953238e-02 9.423820531926446753e-01 5.169495558237413579e-02 7.040243369936727280e-02
1.000000000000000000e+00 3.451372587722022489e-01 2.076241277709589550e-02 1.465179981994202407e-02 7.321365702645559193e-01 5.340224002279025939e-01 8.785571564550492818e-01 7.794597854027461858e-01 4.101105192446140579e-01 8.402314451314883970e-01
1.000000000000000000e+00 9.365359581610125383e-01 5.490289109921671074e-01 1.804559027001693128e-01 3.799564915637773099e-01 5.035187498127209338e-01 9.577376531802744841e-01 2.085882740280098346e-02 3.155221423578665751e-01 1.668643888577608925e-01
1.000000000000000000e+00 6.711222869036881367e-02 9.266134845418195765e-01 9.188481097988295820e-01 1.612820194678047381e-01 8.872281092282925385e-01 2.506050866180548065e-01 5.907631965688794340e-01 7.714005686813244500e-01 5.527311196317388209e-01
1.000000000000000000e+00 7.333186680306406080e-01 6.678055325548862831e-01 1.487416064525519666e-01 8.106244420663066830e-02 1.833651035486169034e-01 2.154657412737004396e-02 6.859402595383222723e-01 1.617687726764183154e-01 8.461818289078071320e-02
1.000000000000000000e+00 3.271625103028997783e-01 5.954241999381781891e-02 1.543360806519434858e-01 1.426269799841263231e-01 3.477025199653113186e-01 6.504696983350078954e-01 6.697518927449597204e-01 7.944615269532107060e-02 2.264880172117156309e-01
1.000000000000000000e+00 1.329439470705260362e-01 6.109933162521266059e-01 1.838813746409460048e-01 5.300624042812912551e-01 4.180217553349271364e-01 9.964339214765118857e-01 2.326946753761338638e-02 7.887926530227211686e-01 8.931080575971841462e-01
1.000000000000000000e+00 7.204294470550393070e-01 6.101520213234612466e-01 7.659197779562443298e-01 7.524214952789416433e-01 2.943651611216876463e-01 3.295806818543048911e-01 9.792942933138572004e-01 6.413558053108080470e-01 4.499436656694563164e-01
1.000000000000000000e+00 8.236483803608364296e-01 7.429119999105744387e-01 5.172249071458578928e-01 4.442827507560620504e-01 6.784745738273911808e-02 6.581914371287247434e-01 6.742992119781676674e-02 9.333918678622175058e-01 7.524303423309998129e-01
1.000000000000000000e+00 1.228112512804518941e-01 6.408907241972182645e-01 3.379081304705434663e-01 7.933677150979213666e-01 1.950559103646847259e-01 6.910969702586871044e-01 1.628363923662234924e-01 2.639234950848068362e-01 9.411071726670302562e-01
1.000000000000000000e+00 3.400183313415550135e-01 2.204289568577781910e-01 7.711016045517038453e-02 5.474365791076228893e-01 3.589048780006989237e-01 9.864661079391138232e-01 3.517633226739577124e-01 9.371539365403868116e-01 9.449303442850448542e-01
1.000000000000000000e+00 5.693739414163493384e-01 1.677523618364354929e-01 3.843452961224164133e-01 2.681526739898441036e-01 3.527609877945644401e-01 3.073867843700529567e-01 1.062850138498485641e-01 3.366072398552873990e-01 3.547445635538122310e-01
1.000000000000000000e+00 1.095493586226730098e-01 2.407916336089025444e-01 1.591291610047211869e-01 3.716889030108989633e-01 2.201803649325110301e-01 9.011834959271136647e-01 3.503988883988294889e-01 2.144788802714719944e-01 9.500073098751090628e-01
1.000000000000000000e+00 2.227727967165196166e-01 4.889045102595880321e-01 1.253252976832412990e-01 8.833727117621579250e-01 7.457931673731835742e-01 3.508147951258608899e-01 5.066213332854745399e-01 1.306238327857247583e-01 7.648063539589396997e-01
1.000000000000000000e+00 8.602517544545770223e-01 9.971316522155215800e-02 1.722104340640182585e-01 3.008417762045122457e-01 4.907883998288409266e-01 6.104818813850401149e-01 3.123177494064219850e-01 4.242522495352172296e-01 8.710378287533302455e-01
1.000000000000000000e+00 9.262449336098379504e-01 6.237179250226198013e-01 9.519251591173921723e-01 7.921468167055867315e-02 4.401927087288107776e-01 2.137323353192611686e-01 4.692398875573392525e-01 2.386201189713333948e-01 7.426320662622197810e-01
1.000000000000000000e+00 8.622378046687616537e-01 7.647823993119094999e-01 2.442511590580459524e-01 6.822276910536877459e-01 3.131518754532061077e-01 9.844877143257895202e-01 2.968247117179452221e-01 1.300780148357703059e-01 8.828228901012606933e-01
1.000000000000000000e+00 1.418276726254648068e-01 9.388577945229449329e-01 7.325587839864591277e-01 5.722860686234075844e-01 7.897769340976124042e-02 2.720697359010213479e-01 3.556280797042826736e-01 9.827199382887287227e-01 5.632626518025019013e-01
1.000000000000000000e+00 3.573626746987594860e-01 6.948810187202291155e-01 4.514159506839549030e-01 9.197852649992726004e-01 7.941964989283736287e-01 2.525233260171166894e-02 4.464941020889885426e-01 1.341818924181208406e-01 3.343567261033495441e-01
1.000000000000000000e+00 9.412688447531203373e-02 9.649514014950962837e-01 5.224724018658989388e-01 7.376398495184665061e-01 6.139123555183811920e-02 9.326152184055161998e-01 5.237762025754614248e-01 4.458362079663658051e-03 2.597172597457378940e-01
1.000000000000000000e+00 7.929426031710139489e-01 6.514064881108696525e-01 4.531995588098172156e-01 3.285849685528914321e-01 7.406082265130808917e-02 7.723806333916850564e-01 8.983456741745544649e-01 4.944633266797970883e-02 4.519101118820596508e-01
1.000000000000000000e+00 7.027196732732620132e-01 7.166579100678387437e-01 5.754466074000885722e-01 1.420112771701957932e-01 5.457931813785281694e-01 5.952852030687905138e-01 7.529592835291082364e-01 7.562914342425686165e-02 8.637211438255140150e-01
1.000000000000000000e+00 6.767344771823892158e-01 3.806651282713393591e-01 3.087088143877319002e-01 4.594721599019927494e-01 6.695735304388881204e-01 4.157999941452527048e-01 8.716958549777618082e-01 9.827496259582979565e-02 7.586779407732805458e-01
1.000000000000000000e+00 1.606149774261298457e-01 2.203208136183785193e-01 4.899459936668778548e-01 4.459952668628796024e-01 4.288111752914288699e-01 6.090941756332052259e-01 3.209398274244555926e-01 9.060590721201114972e-01 8.725448280930054867e-01
1.000000000000000000e+00 3.152814110116255453e-01 3.207285472430818629e-01 9.292381892911699692e-01 2.532156851648877938e-01 6.371222850748244904e-01 1.664255870069030196e-01 4.116137544248180680e-01 1.150498669605537483e-01 4.122602202095655421e-01
1.000000000000000000e+00 9.465442058390340918e-01 9.153717273283404898e-01 8.516140818344722918e-01 5.053012359923632069e-01 1.262375931596126932e-02 3.369000192492437318e-01 4.423863697216178226e-01 8.961020761056078809e-01 3.330387217448237402e-01
1.000000000000000000e+00 1.744325107474091752e-01 9.328238417647811698e-01 7.049186487943802648e-01 5.082700391342219737e-01 9.597451751985150992e-01 3.894647983008395764e-01 9.030744365264807838e-01 5.607522636450262832e-01 1.714865414964953372e-01
1.000000000000000000e+00 1.412581761748483711e-01 7.520030251741558480e-01 4.633015041067511941e-02 3.201580305136237925e-01 6.668403222050733881e-01 9.263460656175510621e-01 4.107866669456758935e-01 3.221486650270164454e-01 9.365308767116815591e-01
1.000000000000000000e+00 1.470231351726172253e-01 9.329537801392102647e-01 9.836048833261568092e-02 8.821156689834681597e-01 2.147137594820222040e-01 9.523690577992910411e-01 4.255005348118772179e-01 6.191483343718272581e-01 6.755106234597529902e-01
1.000000000000000000e+00 6.579155158336417175e-01 3.991339745681704576e-01 7.311396720410194838e-01 9.931163635969343373e-01 7.834617510310331046e-01 4.145982974744674143e-01 2.405248409316389502e-01 1.160455403250538753e-01 7.160993197400417065e-01
1.000000000000000000e+00 1.386272458641095717e-01 7.227298507077879464e-01 4.537253829947167638e-01 8.124451407701425154e-01 1.093625689089641195e-01 8.029764142048525510e-01 4.097840750180469227e-01 6.777144730304214271e-01 6.259946715955816421e-01
1.000000000000000000e+00 5.273566886459671865e-01 7.551875745788627636e-02 3.351562417514101222e-01 5.486439809596427297e-01 6.392200718725783437e-01 2.059712588636731789e-01 5.536355016184646427e-02 6.946281531937520404e-01 1.471761195025945712e-01
1.000000000000000000e+00 2.859308760074353861e-01 2.066438777414687511e-01 6.576892537741864109e-01 2.947812428341533009e-01 2.106235791397215174e-02 9.861537962993549566e-02 6.117379865489683821e-01 6.079218548211222650e-01 3.425649809971265114e-01
1.000000000000000000e+00 5.798633581701844175e-01 6.934426576933705455e-02 4.156800507180327120e-01 5.474782177768342528e-01 7.491950652204376615e-01 1.532473509624688868e-01 2.186495017850432765e-01 3.306917859982843044e-01 7.493462719416710272e-01
1.000000000000000000e+00 8.953569230320539418e-01 3.877256856345864255e-01 8.548350281195303824e-01 3.162759035102378213e-01 3.208771604308233716e-01 6.821792086202538297e-02 9.012360150807091630e-01 6.335896763865384029e-01 2.609639559902754424e-01
1.000000000000000000e+00 2.327317216928191934e-01 2.482059430067368178e-01 2.529106797230443737e-01 8.908750093377579837e-01 3.808165081348723335e-01 4.208289094147565912e-01 8.651663361992930623e-01 1.497465649222362583e-02 9.154008807601112796e-01
1.000000000000000000e+00 3.738294124781124106e-01 8.970687859261924357e-01 4.779294122142163648e-01 1.116049952614134311e-01 3.309532876341103602e-01 4.736172075371869461e-02 6.154710736530543125e-01 7.139688777888009152e-01 2.069035986704146346e-01
1.000000000000000000e+00 2.162693549630047007e-01 8.996442648243094808e-01 6.213827747068757512e-01 2.246897574782955598e-01 4.614798043426081575e-01 1.380500025602954262e-01 8.079257771267008836e-01 3.613177749901708147e-01 1.246409348401554817e-01
1.000000000000000000e+00 4.861123716333357603e-01 1.841218914465460044e-01 1.546018830223390150e-01 2.718586053788201173e-01 3.419440417927328557e-01 6.835818440117916728e-01 1.456487062378395425e-01 8.883961077731039602e-02 8.495346724504521108e-01
1.000000000000000000e+00 2.097752745892940140e-01 6.548409434985783539e-01 4.861179131344790516e-01 7.988592550942069659e-01 2.472047955827189059e-01 7.041199061507896761e-01 5.667164584786322790e-01 1.982640029421992578e-01 7.212178873179733163e-01
1.000000000000000000e+00 5.750866043561873031e-01 3.964239742691955115e-02 4.496648019701088295e-01 2.235995886760875351e-01 9.326626096319534653e-01 8.843992010072220245e-01 7.773118787667780971e-01 1.199042200588000817e-01 8.691590277823605382e-01
1.000000000000000000e+00 9.917815117430813787e-01 1.577438056096807095e-01 6.271157295073168658e-01 7.261324084867349926e-01 7.677379609945966799e-03 2.304796463981788612e-01 3.997921788348862693e-01 9.199655437686160564e-02 9.715060957939569697e-02
1.000000000000000000e+00 1.967964413514866617e-02 8.771570050397414775e-01 9.818732101993354888e-02 3.808421982672580697e-01 4.790788585886085471e-02 8.413574561113640327e-01 8.735598847118634103e-01 1.123925819552810124e-01 9.061236361360814895e-01
1.000000000000000000e+00 8.391826553798890087e-01 5.427949926490638344e-01 1.334438461070401871e-01 1.862670740805839609e-01 6.065640721983708294e-01 4.381761222080049478e-01 1.506838582521299319e-01 3.285531443776352756e-01 4.803193316955548520e-01
1.000000000000000000e+00 4.300029922234067659e-01 8.489671502611821907e-01 9.542073149632718243e-01 7.034506597909253589e-01 2.534726790998352852e-01 3.434096768040962866e-01 3.361202922909389823e-02 5.387616922504431249e-01 8.962764695796614500e-01
1.000000000000000000e+00 9.630640371436406388e-01 3.588223025750344464e-01 9.498049737058860131e-01 6.583503867635487339e-01 6.573158457660441822e-01 9.022456768407304262e-01 6.652532042605904250e-01 8.321455575998422116e-01 4.981331622965293748e-01
1.000000000000000000e+00 4.791531029212298121e-01 6.519860607704925926e-01 3.722064298201009924e-01 6.596192167659657990e-01 2.948860368034076362e-01 6.203644466465374485e-02 7.290054480448867613e-01 5.548940359233123232e-01 6.926902042889124811e-01
1.000000000000000000e+00 6.873882342991632921e-01 4.899635257045553693e-01 7.986334157452872340e-01 6.660233203010001990e-02 1.201226458192438118e-01 9.797420620030958816e-01 4.057617450273468540e-01 4.672674925616444597e-01 8.123057930584540731e-01
1.000000000000000000e+00 6.377306251746732713e-01 7.345537979577282384e-01 2.421593682908318446e-01 2.547483453744170401e-02 7.333869979554044072e-01 2.517623831577864291e-01 2.200563093553040694e-01 7.646477687636815679e-01 7.090114912097027489e-01
1.000000000000000000e+00 7.059300708421135662e-01 8.915736291977124361e-01 5.453926115545831843e-01 9.711256398073311313e-01 7.857117722462045872e-01 5.808422842457284796e-01 5.726198467177965323e-01 9.990007195603088919e-01 2.374523722061633313e-01
1.000000000000000000e+00 9.559454528992491484e-01 9.823200756135869183e-01 6.136944328546677374e-01 7.116348072270167746e-01 6.344487265069509441e-02 5.708094775375521790e-01 2.739591725472751982e-01 4.965094358628651117e-01 3.708142521209683018e-01
1.000000000000000000e+00 3.146917847327157514e-02 8.959078162099841647e-01 4.868959835513326784e-01 8.085487778788458257e-02 9.246061509256144895e-01 8.067789188538743161e-01 6.937505219778455912e-01 5.936229628248157475e-01 5.390518334866937211e-01
1.000000000000000000e+00 7.515328597294954616e-01 8.234364941381633329e-01 9.744018612298697146e-01 6.464384272897952810e-01 3.700250939825611152e-01 6.718170600926477443e-01 5.771592728879508805e-01 1.902784501317799082e-01 7.017119026542656401e-01
1.000000000000000000e+00 4.897306410718522685e-01 2.071315122800656550e-01 5.315132186376771983e-01 5.893564991408430931e-01 4.811044206555722402e-01 2.560027556937590765e-01 4.152176387771999710e-02 9.335372231988041669e-01 3.658995369732795933e-01
1.000000000000000000e+00 3.503904895798354291e-01 6.701243655196826854e-01 7.719129991253034229e-01 6.752360974963678153e-02 8.150400468446744595e-01 5.924773729725583138e-01 2.291426565335719090e-01 9.567904301214049667e-01 6.669833781786328464e-01
1.000000000000000000e+00 2.855428354720326301e-01 4.545534475733634672e-01 2.142355368333948018e-01 7.001286858923714274e-01 7.278790906244924086e-01 2.095461157599228796e-01 2.715580564249412410e-01 6.798542682506458767e-03 5.163493932516560747e-01
1.000000000000000000e+00 6.097843800321933738e-01 5.278097600898465913e-01 1.430879309895149998e-01 7.375671090738414870e-01 9.024132156286125417e-01 7.439487050869397766e-01 4.089055098152167833e-01 5.779084542055092921e-01 1.142386016238204904e-01
1.000000000000000000e+00 9.014743354689769284e-02 3.124985806275382139e-01 1.354642217621805367e-01 3.059424458350956666e-01 8.292982245367862548e-01 1.407921266401503946e-01 8.208998315774435062e-01 3.990315159980812876e-01 2.358778470755202861e-01
1.000000000000000000e+00 1.661129553706355289e-01 6.946103800813686613e-01 1.764577763675320154e-01 9.702647616162083377e-01 7.219776054843407564e-01 8.926209090826864312e-01 6.934675543308674861e-01 9.452162147883290677e-01 7.917427683004372163e-01
1.000000000000000000e+00 3.568955034359492240e-01 8.611286191961140535e-01 7.995271798920294826e-01 5.862943709838467354e-01 5.767636330507821540e-01 1.418946661847375612e-01 4.450686126503714535e-01 1.632414159805458675e-01 2.901437532240642714e-01
1.000000000000000000e+00 8.429000621459712406e-01 7.076810735830603161e-01 3.541707191016927325e-01 9.603984910063295688e-01 4.128118527117941028e-02 3.814366777393209951e-01 6.354420758052516938e-01 1.484587392666765204e-01 8.767540541345766325e-01
1.000000000000000000e+00 3.340330208646266064e-01 5.259999931152786745e-01 5.160253221421177150e-01 3.719540499492888230e-01 8.029367766076372925e-01 8.314066922284545358e-01 4.557066690020727950e-01 3.223747036195721005e-01 9.284661116616386156e-01
1.000000000000000000e+00 2.780718956920390506e-01 6.408265742150398570e-01 2.334537806122506387e-01 5.036252719396926425e-01 4.234519695755322166e-01 5.708009098891918542e-01 2.539779499484030589e-01 1.321508932036595807e-01 4.717252611646174376e-01
1.000000000000000000e+00 3.314802349207762733e-01 9.950808688556221915e-01 8.168545252932644107e-01 1.422402156054343170e-01 6.472969461928357315e-01 9.625084237416765554e-01 3.579364245873272177e-01 8.744359438544854202e-01 8.420591781211727023e-01
1.000000000000000000e+00 5.957844970637051762e-01 4.955624107097922337e-02 7.709107360512659213e-01 4.709339145800618409e-01 6.257250183626456019e-01 8.408111080344817800e-01 8.235972202084638205e-01 8.990010130868344440e-01 6.016995872137559376e-01
1.000000000000000000e+00 6.105036928536976548e-01 7.386196262235227294e-01 6.492241066919985926e-01 4.912823551135513389e-01 4.230910985343782071e-01 9.543564264404533759e-01 9.725906454991395389e-01 9.397266577163035928e-01 2.459932449274646604e-01
1.000000000000000000e+00 1.289911024415540952e-01 1.440402839848031746e-01 2.149606690011568455e-01 7.877114769145275863e-01 1.869585160256290735e-01 5.017230569388881900e-01 2.883983771082606617e-01 4.379443320680677099e-01 2.593832234684140259e-01
1.000000000000000000e+00 4.359544298202367996e-01 4.076776738666915145e-01 4.930593609285727208e-01 8.414946820896902491e-01 8.754997525438923400e-02 8.721421846499854968e-02 3.646631881072429637e-01 5.386777852279339696e-01 1.264092594355000765e-01
1.000000000000000000e+00 7.343341925953172922e-02 3.416965123716041441e-01 7.536123532351907128e-01 9.197978670980697657e-01 4.868330862026117867e-01 4.247250768720177705e-01 5.142412318962267248e-01 9.521414240448844435e-01 2.299891634099441307e-01
1.000000000000000000e+00 2.821090815801842178e-01 2.557416018028701998e-01 4.204024605196572395e-01 8.902834446540581759e-01 5.137105600777385206e-01 4.114134509505193993e-01 6.286985917533086665e-01 9.796609959319118044e-01 5.591321433662181928e-01
1.000000000000000000e+00 7.846667945896423912e-02 1.340321793764054359e-01 7.616708816551434058e-01 1.804330336189156059e-01 5.427512301207380041e-01 5.738408991912694601e-01 1.918893608163475539e-01 4.480993251483132989e-01 6.317648387332547300e-01
1.000000000000000000e+00 1.738425564429246784e-01 3.411483055742442483e-01 4.540218490532407225e-01 8.980145895408245815e-01 7.905507495115053906e-01 4.763880992999435238e-01 7.779835344408344566e-01 5.516651191555510536e-02 5.432405932443535868e-01
1.000000000000000000e+00 6.782614352615118358e-01 8.002117266954502650e-01 4.591948520041162496e-01 9.350157413105188997e-01 1.293616919125040177e-02 6.770743973072933519e-01 7.687939760831240532e-01 5.415002755955194980e-01 9.055945083815648555e-01
1.000000000000000000e+00 4.010859923562890561e-01 5.657888329016501627e-01 4.895848914274492092e-01 8.053147563177687207e-02 4.876855946826252897e-01 6.588511774316729852e-01 1.654299165035831853e-01 3.827819122926224837e-01 5.253830266288561646e-03
1.000000000000000000e+00 1.962519582404247398e-01 4.827443652534031404e-01 3.606302646684257374e-01 6.183417831047789415e-01 1.157719134396018035e-02 6.809801583040674400e-01 1.332321979239703413e-01 4.957297692463679128e-01 9.246208969647419229e-01
1.000000000000000000e+00 4.891361430036142988e-01 2.903271567071414871e-01 2.455697806510881431e-01 8.579417161191071894e-02 6.551836169325226944e-01 5.759076167900440968e-01 8.383364929514472985e-01 2.880968378149028064e-01 4.320357097401832380e-01
1.000000000000000000e+00 7.423725498228436193e-01 6.636825604537149870e-01 2.050456708650923998e-01 9.486648320135219192e-01 9.203279089285989478e-01 7.541217299877298608e-01 6.327627475156745174e-01 8.975674315924649926e-01 1.148528198271627776e-01
1.000000000000000000e+00 9.410130185590294127e-01 7.831306152234671636e-01 7.893201008806864927e-01 5.893391148653519540e-01 9.427485037793537082e-01 6.823133612260319225e-01 5.969594329422545087e-01 5.636537398539003263e-01 9.433094400483272857e-01
1.000000000000000000e+00 7.155339340844536489e-01 2.142363614147080320e-02 8.835745511316370759e-01 8.795511309564943980e-01 9.328738382291540399e-01 1.041288523421928236e-01 5.266785737045222016e-01 7.243311055913551622e-01 1.701125485931656023e-01
1.000000000000000000e+00 4.340976295489541448e-01 1.332745862784967539e-01 9.684785840151733938e-01 3.778100027071643607e-01 9.809900178354736822e-01 1.144263285791101703e-01 7.704496483767138137e-01 5.546298059459182639e-01 9.514353788499974041e-02
1.000000000000000000e+00 5.495703674438519037e-01 2.062391409214472393e-01 9.961555848128799129e-01 6.594003271755602968e-01 1.210885334683067249e-01 8.239149631607389779e-01 1.078860926151631316e-01 2.715977364038139052e-01 2.222794846755107301e-01
1.000000000000000000e+00 1.595257011972704975e-01 5.227844481411647592e-01 1.335501590154214435e-01 4.068037607639853892e-01 2.838190193092848812e-01 4.615949393009943780e-01 9.200772359766089536e-01 1.862091796645374275e-01 2.841075489588618108e-02
1.000000000000000000e+00 2.926346419355246864e-01 8.140331590854592569e-01 7.840305972888028663e-01 4.010092775393901965e-01 4.069666862703970045e-01 7.712737607442976540e-01 7.830210039503471275e-02 4.972796572988895658e-01 3.910962293552019409e-01
1.000000000000000000e+00 6.065264583253083819e-01 2.279068816455175339e-01 6.885816725377917891e-01 5.968840165023754363e-01 9.788382724267544743e-01 9.715883503380601249e-01 3.562687010334202320e-01 2.793139485040625480e-01 1.674903158272519343e-01
1.000000000000000000e+00 9.530619700494554758e-01 4.870782171063141597e-01 6.327779486141140719e-01 4.904564845127231676e-01 5.781969459211012685e-01 5.533651242029414830e-01 7.756692960529099068e-01 2.953711691696319086e-01 8.561687754858007260e-01
1.000000000000000000e+00 8.695806437102622244e-01 1.519396499207430473e-01 6.329245343163850679e-01 8.440208950729735093e-01 3.488481468244648553e-01 4.282187674539832400e-01 3.741141789616739821e-01 9.384307674148970602e-01 6.647590970836853019e-01
1.000000000000000000e+00 5.603701554667498419e-01 6.166662577217422170e-01 8.353110383822648366e-01 4.766668346954238134e-01 1.546350416863842003e-01 5.948266670267721157e-01 7.700422189261948436e-01 9.163073235297880537e-01 1.102580343428662957e-01
1.000000000000000000e+00 1.493746004199315580e-01 9.257314452341123268e-01 8.750121868126712332e-01 9.365367202949949066e-01 1.145788550686398510e-01 9.206007211407107871e-02 2.198534009088927155e-01 3.374635463813763225e-01 1.433987447037810004e-02
1.000000000000000000e+00 9.934940585597847873e-01 2.580471885168589274e-02 2.914114088790051849e-01 8.256010745143168572e-01 4.883592544251157408e-01 6.090912976544341495e-01 5.372792635379963766e-01 1.762846770843194966e-01 3.633053626915020429e-01
1.000000000000000000e+00 2.411413903110702917e-01 9.957140459156477164e-02 2.614814818067275892e-01 9.747674321560395594e-01 5.946892730864918875e-01 2.206453606547821300e-01 6.039584283271784981e-01 4.121078866068090818e-01 2.510249623672108354e-01
1.000000000000000000e+00 1.993016979176955861e-01 4.792429816302903323e-01 4.547957710587693381e-01 2.563276072750280132e-01 5.652268053344668974e-01 6.897002320780087903e-02 4.461783858006357351e-01 1.520109235183855212e-01 6.601144628334449926e-01
1.000000000000000000e+00 6.889126570377940295e-01 5.186753290272644312e-01 6.129287990743359504e-02 1.873677524818557760e-01 6.628776778961572580e-01 6.852208524617712238e-01 8.064782387177035217e-01 3.357658287554798893e-01 1.316185394491509175e-02
1.000000000000000000e+00 9.377793123211118909e-01 6.631790311752758793e-01 5.673022275874247677e-01 5.978940255681575167e-02 9.397653526098495025e-01 8.920318838771387204e-01 3.832489478101168690e-01 7.698517252055059323e-01 9.661351027743094733e-01
1.000000000000000000e+00 7.682044719467370220e-01 9.760834409314769200e-01 7.507076393141079995e-01 5.648253185192617654e-01 1.303166160925683936e-01 1.623379184173734391e-01 6.405982353129200391e-01 9.640188767799267033e-01 5.534944309031299969e-01
1.000000000000000000e+00 4.298280525884672354e-01 6.583795100513343268e-01 7.199097766574641399e-01 9.660972403167938927e-01 8.301782463075220164e-01 5.625215620405502603e-01 9.574605963584206236e-01 7.741844579288061912e-01 5.544991840906950964e-01
1.000000000000000000e+00 1.160614655429917930e-01 8.532981190759370005e-02 9.134521364701562174e-01 3.261540629350309084e-01 9.574488587281372309e-01 8.296208314916687643e-01 3.584913752426094335e-01 4.422950942733705482e-02 3.615785951102291618e-01
1.000000000000000000e+00 4.862219943977860170e-01 1.130571364389504341e-01 6.416889279169953886e-01 7.158898431314509869e-01 2.066068693874697493e-01 6.506011435514784669e-01 5.044341712182820459e-02 6.530133438897489651e-02 9.042955797240413984e-01
1.000000000000000000e+00 3.635360894940644627e-01 1.907478959262380869e-01 4.131045258306541568e-01 7.975720925622364899e-01 7.768462809499598887e-01 8.408808969666895505e-01 4.919129442972676181e-01 1.906529608820924926e-01 4.695637192673942639e-01
1.000000000000000000e+00 3.535929314317228789e-01 3.215547141604785386e-01 1.199198527986401475e-01 6.049178409490929553e-03 4.701153496910651652e-01 5.270181076963155187e-01 1.276112152358883645e-01 6.926268359266081198e-01 6.237005543758670223e-01
1.000000000000000000e+00 2.447827714078423256e-01 6.262130464158724985e-01 9.311867474775588072e-01 4.446102073277375943e-01 5.703784828349042213e-01 7.375886598748659928e-01 9.811832545407513928e-01 8.690624406498268506e-01 6.996678566526342014e-01
1.000000000000000000e+00 1.796582597105222945e-01 2.067527247067423302e-01 6.145968151255887246e-01 9.150070119474064123e-01 2.413107491626275136e-01 7.840314732685029764e-01 9.465372860688600065e-01 8.561583460905185516e-01 5.034528751001100533e-01
1.000000000000000000e+00 1.499921522326780332e-01 6.493968477190983357e-01 5.641864686087967318e-01 8.806394418954623937e-01 4.705233568653471865e-01 7.645282123415247932e-01 2.324818133783344010e-01 8.539489615118627253e-01 7.563321518537422516e-01
1.000000000000000000e+00 9.241290189224344864e-01 6.512421376799079065e-01 1.799440784960222306e-01 5.266570209447816175e-01 6.620452514398678101e-01 7.379678785998144974e-01 6.707078122680688592e-01 8.459992455345455298e-02 5.191223079443818555e-02
1.000000000000000000e+00 9.041842407727207487e-03 5.142323487865892995e-01 2.065971109254594040e-01 5.698846433306675729e-01 6.709963444904535335e-01 2.707965091492143817e-01 7.844673043080041541e-02 1.334913888329691822e-01 5.283232279551067778e-01
1.000000000000000000e+00 9.365120137127014299e-02 5.898758894251655560e-01 7.344022294067892309e-01 1.931684116448872945e-01 4.823728483869168526e-01 2.800612139589581107e-01 4.355763810345658626e-01 3.054553060060632985e-01 1.348144804378169637e-01
1.000000000000000000e+00 8.018612967221040444e-01 9.134607355899986292e-01 7.121258158870462651e-01 5.113341860455902221e-01 4.257463127098370936e-02 2.715792264895806607e-01 6.961239346192555910e-01 5.264170061452122518e-02 4.437228822772162351e-01
1.000000000000000000e+00 4.351241518631010496e-01 6.055004912217454294e-01 2.433218741196490065e-01 5.019064638876936657e-01 1.902048944281062859e-01 3.137389757669116763e-01 9.134698203031640373e-01 9.649465469219831171e-02 1.499640988258855723e-01
1.000000000000000000e+00 1.250623134219477350e-01 2.677229314595375165e-01 2.959559623765831704e-01 5.192697474930978441e-01 4.217647242361148852e-01 8.106550442775577459e-01 9.104559637967262198e-01 3.788957036831672731e-01 8.235821625978632099e-01
1.000000000000000000e+00 2.264594858613203643e-01 9.018982773907034955e-01 6.930834171927739984e-01 3.109423411228385836e-01 3.556290319799149113e-02 4.154213423209651701e-02 3.733140344210603701e-01 6.792904294136944410e-01 2.130553528630014792e-01
1.000000000000000000e+00 2.342139294503323699e-01 7.424467225383283298e-01 2.337582290857037615e-01 6.796217530033041854e-01 3.264800442449397044e-01 7.423904920990437306e-01 6.379956154754680142e-01 3.039830288933886848e-02 4.363324653414327736e-01
1.000000000000000000e+00 7.785284390856187509e-01 8.876379019086277911e-01 7.772148738051442018e-01 5.688915323263508128e-01 8.203845026764912118e-01 4.912343800984745323e-01 7.933707267555433207e-01 6.811794878817042376e-01 7.637205229687284991e-01
1.000000000000000000e+00 3.399029362054719616e-01 1.331210703961770436e-01 7.641761439680229140e-01 7.374901179813847518e-01 2.134326439490989991e-01 8.147381684556559422e-01 6.439548380064008537e-01 7.728192506920472660e-03 5.588262454979155969e-01
1.000000000000000000e+00 6.673289159856554686e-02 3.999341414967426678e-01 7.599467916316564597e-01 2.494384183168655289e-01 9.813379440322800296e-01 6.294025680435146874e-01 7.559269188621640101e-01 8.273312779685095819e-01 8.217487597523287501e-02
1.000000000000000000e+00 8.190211913163573110e-01 2.150955232850150223e-01 6.386857642562473458e-01 7.148792521662310495e-01 5.885666139526591900e-01 9.490173924582007148e-01 2.818968348191851492e-01 5.182375391596810710e-01 4.126083445179615783e-01
1.000000000000000000e+00 8.026732174228135008e-01 9.489105776438584439e-01 7.609133994225913966e-03 6.915147797927294615e-01 9.176490078847127085e-01 9.358598238008464243e-01 7.941363539531889337e-01 4.933661033268218477e-01 4.509048337562756581e-01
1.000000000000000000e+00 1.250294430354391695e-01 4.499458120758738078e-01 2.080836046206413492e-01 8.698923335052876071e-01 4.452461646581795662e-01 3.112911617107482209e-01 9.610256605195145463e-01 5.018812485000281320e-01 6.253467875925899921e-02
