# Total Kinetic Energy: 143931.20168447756 J
# Total Potential Energy: -778.3949745593804 J
# Total Energy: 143152.8067099182 J
# mass x y z vx vy vz ax ay az
2.000000000000000111e-01 -2.543394831379916510e-01 1.054246675134417888e-01 4.209571450586315766e-01 3.192911020024466584e+00 -3.327467519581245092e+00 8.979994633840304274e+00 -8.966043962736165440e-01 6.963139999641968503e-01 -4.318718804335897610e-01
2.000000000000000111e-01 4.206739047734358028e-01 2.273895821191533440e+00 5.522962694848833065e-01 1.146265799340207669e+00 7.431125122420596085e+00 3.005910628287120634e+00 -8.638420432590800946e-01 7.477608111009810266e-01 -8.297878829518955390e-01
2.000000000000000111e-01 -4.207932650097415128e-01 5.292131000386832707e-01 2.174023593313239466e+00 -1.853036178655131039e+00 1.845559222134158128e+00 1.061795753128999209e+01 9.641895495286434414e-01 -7.350472763951455546e-01 1.373103499606344924e+00
2.000000000000000111e-01 1.729679789305331727e-01 -1.849271002803524189e-01 2.251795311516521458e+00 2.640692034036228986e+00 1.529360396667726940e+00 5.219481117400698089e+00 -5.460842563394595617e-01 -1.562379614909943371e+00 1.380396280783603880e+00
2.000000000000000111e-01 3.777628668957710989e-01 8.456604670213341279e-01 -2.809822622160217942e-01 2.824461702013044029e+00 3.586266616089200276e+00 2.781162171736673905e+00 8.297013594807493009e-01 2.265106253250432911e+00 9.937754100366300372e-03
2.000000000000000111e-01 -4.577295856198102975e+00 -1.141059060322287166e+01 3.024908873198339343e+00 -1.084337854687452918e+01 -2.232066137763763791e+01 7.572651406182421496e+00 5.503421260199654018e-03 -6.324108284545006953e-01 -1.983938834140225038e-01
2.000000000000000111e-01 -1.238427545824282383e+00 -1.210254330221341323e+00 -1.076423110747858791e+00 -4.523893950089028504e-01 4.412906697554606628e-01 -9.174356642807608431e-01 1.185290918075305733e+00 1.180817650969794297e+00 4.342061600991873882e-01
2.000000000000000111e-01 1.327569520565691663e+00 1.334428083523992337e+00 1.808466753537935512e+00 1.681667818294266148e+00 5.982125179995286146e+00 5.914247287087507132e+00 6.301270386930696299e-01 -1.153803380428851000e+00 -5.839674396223903247e-02
2.000000000000000111e-01 1.770560690853371533e+00 -1.042709470564153751e+00 2.826645676012598862e+00 1.222594512931695077e+00 -2.629343102374024355e-01 9.101455501112877045e+00 4.819874889720659472e-01 6.233897045599963160e-01 7.806367264006173201e-01
2.000000000000000111e-01 -1.394087188635713570e+00 -2.666420696355073616e+00 -3.208385716710997038e+00 -3.952533742627783564e+00 -5.648319231541806040e+00 -7.922968721621447941e+00 -5.073469463042808991e-01 -1.432177634536540234e+00 -5.631686098712457289e-01
2.000000000000000111e-01 2.365947984881996979e-01 -5.981564859857194660e-01 -2.118409572728522150e+00 -2.453326644553412095e+00 1.874846100140048488e+00 -4.455674801890128656e+00 1.112131061580115432e+00 -1.326002105085030414e-01 1.219961580377953547e+00
2.000000000000000111e-01 -5.888596967727692810e-01 4.761311714193321998e-01 6.227805836763279368e-01 -2.420344499429666740e+01 -4.323341474010732988e+00 2.165897976728786745e+01 2.699041547263745788e-01 1.989345446514553695e+00 -2.737681246386168277e-01
2.000000000000000111e-01 -2.031878850248311164e+00 1.626504500073195025e+00 1.090732523663003883e+00 -2.417778499507111878e+00 3.210724381806915328e+00 5.705395655349721373e+00 -2.937911826042545194e+00 1.305695967249574041e+00 3.492309820269403620e-01
2.000000000000000111e-01 1.033637330996354242e+00 -3.723376687076402347e-01 -1.541455235470788887e-01 1.163486519612362180e+01 -2.072560628331279631e+00 -9.043938253562822105e-01 -7.536403006720584496e-01 -1.568655641053418592e-01 -1.413495907973157106e-01
2.000000000000000111e-01 1.043211688810511850e+00 -1.490094931207547102e+00 -1.234065202262552452e+00 3.539362724618434708e+00 -4.804737310484126667e+00 -2.768970258345756275e+00 1.119353522796681794e-01 2.620936284584423070e+00 4.785062303361312108e-01
2.000000000000000111e-01 6.054556917593207910e-01 4.906117765966698130e+00 -6.179003761165708042e+00 1.162265260666363265e+00 1.388883113703703742e+01 -1.675886641183892678e+01 2.322625098397875565e+00 9.424909421025224887e-01 3.856692653494809275e-01
2.000000000000000111e-01 -2.249445056543187160e+00 -2.067661882228153392e+00 2.877986695550331486e+00 -1.192151203063978393e+01 -1.075106503311656425e+01 1.153306113372726394e+01 -7.799893016850598104e-02 -3.623660123757801999e-01 9.463559795580524237e-02
2.000000000000000111e-01 -2.722688500493722005e-03 1.387464362458804834e-01 -1.924155647935061442e+00 -1.162898284531187709e+00 -1.898879260636824773e+00 -1.444600798713268630e-01 -2.822203611955039215e-01 -3.743734202435109598e-02 6.932200910895870427e-01
2.000000000000000111e-01 -4.680537200390392227e-01 1.319952523302682090e-01 1.145207916519555003e-01 -6.941482151960579827e+00 -4.197462360579709895e+00 3.160986773993005983e+00 1.092051761507943697e+00 -1.776818162249802213e-01 -1.957260997796935964e+00
2.000000000000000111e-01 -1.472715010898959509e+00 3.692496589529654649e-01 1.093719761934892842e+00 -7.032051452407902303e+00 4.903392254602289668e+00 4.943085178183135753e+00 -1.664407931597272627e-01 -9.650068241224063481e-01 3.546644428898021451e-01
2.000000000000000111e-01 -6.015283488286274904e-01 -1.508735677309481771e-01 2.300894448220947019e-01 -7.131805586449230461e+00 -2.508254894916666089e+00 6.323486563812045880e+00 1.614489561108785332e-01 -5.663598480014984116e-01 -1.317715235282914538e-02
2.000000000000000111e-01 -1.983552531551739939e+00 3.547729364341053682e+00 5.338001625270518247e+00 -5.594646213655444456e+00 8.117363057963890682e+00 1.287124717641923688e+01 6.295661757179298323e-01 -1.537997823929941443e+00 3.874429109039332908e-01
2.000000000000000111e-01 5.249537984340339747e-02 -2.260657678270532045e-01 1.145929412228872124e-01 1.528979973449549057e-01 -3.555209815209129154e+00 -5.868881019898233298e+00 1.218003542201554712e+00 2.790102563485865605e-01 -9.241176421201500180e-01
2.000000000000000111e-01 -2.980707632740066670e-01 8.268148565367527958e-01 9.775101256916915449e-02 -2.694301839338515414e+00 2.457759578624259866e+00 2.057443591911021663e+00 1.613871496129092753e+00 6.812046624892643676e-01 -6.590206085151249261e-03
2.000000000000000111e-01 4.980427172731570762e-01 -1.938054013820595944e+00 -1.409199444321094896e+00 -7.182827676075130841e-01 -5.543359656582934392e+00 -3.088967865989858730e+00 -5.432097655884298160e-01 8.423833018329252020e-01 -1.494328948952003411e-01
2.000000000000000111e-01 1.737431573621367242e+00 -3.135239357264294480e+00 -3.702066678902074415e+00 4.431702047154656654e+00 -2.014038321437978674e+00 -8.552396672010051049e+00 -8.719875287864491120e-02 -3.539668042882763155e-01 5.144601091997094144e-01
2.000000000000000111e-01 5.383373291022376383e-01 -1.231465931187061408e-01 2.392456428939696567e-01 -9.020413947971816171e+00 -8.360495283312094350e-02 -9.668759155557893337e+00 2.974928503074385500e-01 1.880010619296722807e-01 1.301228515883393833e+00
2.000000000000000111e-01 6.100359677296847138e-01 2.788920574139416297e-01 9.563247356369976027e-01 -1.417008188276756675e+00 6.388908249232672087e-01 1.784050490854517390e-01 9.941663314276857899e-02 -1.730516482962342284e+00 1.597179739205750515e+00
2.000000000000000111e-01 6.370022668999797411e-02 -1.202109295230673197e-01 5.801689234649860111e-02 7.334546844932105181e+00 -3.043884860618142341e-01 -3.812163273448034406e+00 3.571589793730877149e-01 5.647964869292386725e-01 -5.523340820094913006e-01
2.000000000000000111e-01 2.488489546194616320e-01 5.141963304882866126e-01 -3.327343192372073655e-01 -4.027028713588020281e+00 1.130513238807838050e+00 -2.033041097349060244e+00 -1.931708422166933392e-01 -5.189179524242124586e-01 -1.345254381590285479e-02
2.000000000000000111e-01 2.516848084530972085e-01 3.439299949643668808e-01 -1.969771686074291428e-01 3.651143481695261261e+00 -4.061497036205971023e-01 -1.741557978546318219e+00 -9.242347930784594601e-01 7.576997478856134505e-02 -1.392233521600583779e-01
2.000000000000000111e-01 -2.080109533801801192e+00 -9.670792496473914479e-01 -2.401919263291937501e+00 -4.458362723535289618e+00 -1.895451207183570741e+00 -3.338701423878563279e+00 5.957694771162939107e-01 6.344032431227376589e-01 1.694406892158661637e-01
2.000000000000000111e-01 6.787386285364895022e-02 -2.321019744369330340e-01 1.561609630185177011e-01 -2.162760954660640778e+00 -3.698297032045474886e+00 1.604876259444803210e+01 -1.336421660492691510e+00 -7.612067198992983341e-01 -2.184442207875056940e-01
2.000000000000000111e-01 -2.188681283649821729e+00 1.198155395988587335e+00 9.887703330526671497e-01 -1.669236861431722119e+01 9.042848069983087100e+00 7.905855534095072024e-01 1.830918505940636765e+00 1.181604583309558532e+00 -1.100132766297575060e+00
2.000000000000000111e-01 2.555268670482946813e+00 -5.571782625200938366e-01 -3.409127021312510220e-01 1.303866799350364580e+01 -1.173588668653067213e+00 -1.494382491252184808e+00 4.857270106093193318e-01 7.824859205214137470e-01 6.107351836588704730e-01
2.000000000000000111e-01 2.193890628101897278e+00 4.913496737717586438e-01 -1.125022187752160674e+00 4.002570930015246553e+00 3.381185544199956539e+00 -2.326820071901898324e+00 -4.083798253849345583e-01 9.460632332611424999e-01 1.022129414245795065e+00
2.000000000000000111e-01 -3.499513838864201976e+00 -1.135005488600634438e+00 -2.960065753092025798e+00 -8.801424256288289172e+00 -1.233538291455403613e+00 -6.912842535048414838e+00 -2.107969015098144078e-02 4.127555384102606084e-02 1.096106413350836695e+00
2.000000000000000111e-01 -2.073687352360480407e+00 -1.152389701244310949e+00 -1.493629166554069521e+00 -1.494866558341552132e+00 -3.046592711086592242e+00 -2.070337466829739625e+00 1.425218080926183295e-01 -2.681533460908795963e-01 1.418374357297791155e+00
2.000000000000000111e-01 8.080417432651872289e+00 -1.877823978662374493e+00 -5.434202908443911184e+00 1.747685359336828270e+01 -1.619252647460957650e+00 -9.213889920152038115e+00 -5.235611869307986721e-01 1.637598205090995407e-02 1.805484899473831950e+00
2.000000000000000111e-01 -5.703663563630463340e-01 9.192666321248407768e-02 -1.675242431268168630e+00 4.533063347114361541e+00 -3.608092762432266287e+00 6.730544696918876468e+00 -3.163202295495595173e-01 9.522321988995448294e-02 -9.461629756402882840e-01
2.000000000000000111e-01 -2.273685179818190905e-01 -7.864633355579115914e-01 1.516248055251288473e+00 -3.875903476091105748e+00 -1.931222584131952580e+00 1.183776055612611566e+00 4.174437476093765254e-01 -1.380181655339153934e+00 7.162574535250282315e-01
2.000000000000000111e-01 1.808982829058437325e+00 1.712922286867692323e+00 8.759024893521106803e-01 8.475501204911159547e+00 8.697866753735914003e+00 5.333473119280630392e+00 4.525296649238253477e-01 3.344140889732000188e-01 -8.236417003079894439e-01
2.000000000000000111e-01 -1.087375229097873053e+01 -1.713511388963578019e+00 -3.039094228065094772e+00 -2.399206937807928242e+01 -3.249375871093681756e+00 -7.986324477154742141e+00 9.444238424574774582e-01 -3.599042377706139217e-01 -1.177655621319875223e+00
2.000000000000000111e-01 -1.761219164728440534e+00 1.463961340525240240e-01 -1.052204984288221290e+00 -3.813457633854052009e+00 8.322483110206879697e-01 -1.500296395064407928e+00 -7.094150650241234368e-01 -3.432787591816053863e-01 1.729752256166292357e+00
2.000000000000000111e-01 2.468198383355363568e+00 7.340098465941117256e-01 -1.860708953997412651e+00 4.096966482063185033e+00 2.896603503194735030e+00 -7.528587126656351103e+00 -1.396083541317549193e+00 8.191167938667391901e-01 -3.516869100966322215e-01
2.000000000000000111e-01 1.094286982007606435e+00 -3.188231503799361932e-01 2.623236095779937660e+00 -1.669081725817939121e+00 -2.946931154203697445e-01 4.325318668997709004e+00 2.262981583088385928e-01 -7.784210350138612844e-01 -1.020055248432633954e+00
2.000000000000000111e-01 -1.707832471683624176e+00 -2.958287094907695813e+00 -6.716910938007467635e-01 -5.421689971212348524e+00 -6.600006943966598705e+00 -1.204376757884752180e+00 -1.144496758295514005e-01 5.738673722206977246e-01 1.563535298382324745e-01
2.000000000000000111e-01 7.521077873370379807e-01 -5.395610749059754907e-01 2.246260051569754612e+00 1.132890611445082962e+00 4.960876996752610069e+00 3.852842164933491187e+00 8.956669621207787868e-01 -1.940213859434855470e+00 -4.546162688754084025e-01
2.000000000000000111e-01 -1.455624553731198478e+00 3.527219786784205335e-01 -6.023492540176735410e+00 -4.558456507010440362e+00 1.201617735596790082e+00 -1.368153835280826058e+01 1.287839676788305132e+00 1.211425043583911343e-01 -4.177786500589580343e-01
2.000000000000000111e-01 -4.644602201022580701e-01 5.698035559286340757e-02 -2.380348016795517385e-01 3.959288158152194370e+00 4.589780676707864160e+00 -6.984505666049882322e+00 1.645292458308862171e+00 6.000702075107278155e-01 -1.452035520500345012e+00
2.000000000000000111e-01 -2.417477710593817886e+00 -1.659441431432549408e+00 -4.397770656599635508e-01 -9.498794235708061251e+00 -4.364228419540078008e+00 -2.584101740599430208e+00 8.565027547425647647e-01 4.045933102233424949e-01 2.699203104838276412e-01
2.000000000000000111e-01 1.952530214938769104e+00 -5.433974352683442754e-01 2.304400817191265105e+00 -2.537520657062820595e-01 -2.039338468628929313e+00 6.693037209690827716e+00 1.079373184858595902e+00 1.168430214982944665e-01 2.078051804633141320e+00
2.000000000000000111e-01 -4.286642521316744170e-01 2.162522338193786364e-01 -7.081925083773190632e-01 -2.390632342879570049e-01 -1.074516794461616964e+00 -3.158496879159975013e+00 -3.116156579120536452e-01 -9.656805898680476119e-01 1.049679311352054611e+00
2.000000000000000111e-01 1.107222289148636385e+01 2.606737457991941564e+00 8.186088219333945704e-01 2.396815108092431501e+01 6.254318675217080070e+00 5.351759722718366641e-01 -1.178040336042603387e-01 -1.359939040977154734e-01 2.226318798930941589e-01
2.000000000000000111e-01 9.038508451897671048e-01 -1.123469524360609650e+00 -3.824128959192051314e-01 5.322060836835295738e+00 -6.715990844825178385e+00 -9.069220716673022764e+00 6.605003871932092485e-01 2.834908369412093565e-01 8.112638664168756453e-01
2.000000000000000111e-01 -8.340933337017382598e+00 2.374064902592387227e+00 5.491854745112369152e+00 -1.410803006512052882e+01 6.300096063461808171e+00 1.154230224169702801e+01 -9.524643725018940854e-01 1.203399519389974637e-01 -7.508942591848019044e-01
2.000000000000000111e-01 5.368266963266646874e-01 4.208619504650985554e-01 8.722973092222063851e-01 5.671981283156124043e+00 4.763427540755127865e+00 7.361264281436744605e-01 -8.714850382688268393e-01 -1.451128569074773278e-01 -4.430263072455225548e-01
2.000000000000000111e-01 1.407566110931540493e+00 1.029104596443893627e+01 -3.598867821083155061e+00 1.459588122689256862e+00 2.195824115411011590e+01 -5.837896605043995102e+00 6.653372657258510570e-01 -5.790713660383163264e-01 -9.607341965854655497e-01
2.000000000000000111e-01 -1.385119575475753650e-01 -5.751140504454984592e-01 8.153938426133752748e-03 -1.187933689882780808e+00 -2.094701997376696490e+00 -7.606737188788905257e+00 -2.987053318640132127e-01 -6.339671642628654791e-01 -2.061552010098763432e+00
2.000000000000000111e-01 8.081619059090123791e-01 3.629807146288285491e+00 1.521364810676403279e+00 3.498943499886032260e+00 5.826916616096340817e+00 -9.160552278368826462e-01 -7.224952440073477700e-01 6.793649994325586805e-01 -6.342272416482459541e-01
2.000000000000000111e-01 -1.932175459796135059e-02 -1.583133052474798630e+00 -1.640324953463605739e+00 1.123790378968691356e-02 -3.530622312619962511e+00 -5.950724640998187098e+00 -7.648265045724579325e-01 -5.277428730811927204e-01 -7.285606645227563627e-01
2.000000000000000111e-01 -8.302624646222412919e-01 7.268229241870621804e-01 -1.076931796240257200e-01 -6.298720565070023980e-01 3.466525156555561260e+00 -6.400196397892992550e+00 1.401336077286875259e+00 1.994418133751360456e+00 -2.493633451681860791e+00
2.000000000000000111e-01 -1.470121284941662942e+00 -4.095852126376984259e-01 -1.954140020687602286e+00 -5.300445019135778146e+00 -2.002742334886845332e-01 -5.829908353218881345e+00 -1.686947643786270434e-01 -1.112949139721709502e-01 1.785866028079163836e+00
2.000000000000000111e-01 -2.679235394847501173e-01 1.562287345347889433e-01 -2.149469489088929208e+00 -4.116661201386732749e+00 -1.388237367766210761e+00 -1.822147671828839854e+00 1.095186438311185118e+00 -2.027299091432454570e-01 -1.658432873299482635e+00
2.000000000000000111e-01 1.021741495458274862e-01 7.582708480341688873e-01 -5.381876795549593862e-01 3.170692274320087822e+00 6.015478596010210843e-01 4.816555434325797691e+00 -6.831357477726296423e-01 -3.446388259010521038e-01 -2.665593068137567245e-01
2.000000000000000111e-01 -9.223524706545184193e-01 -2.922059953942989008e+00 -2.176276953045666041e+00 -5.378698750400029205e+00 -3.510013855369745084e+00 -1.880529115459122380e+00 -1.592421874085047095e+00 1.156823731462514049e+00 1.069107359911631194e+00
2.000000000000000111e-01 -7.521783740650564987e-01 8.595410335628364540e-02 -2.103286332616012833e-01 -9.984413809726596867e+00 4.668838348098215185e+00 -4.008786611879878947e+00 -1.223310586007041900e+00 9.809448759719592292e-01 3.204576417922734843e-01
2.000000000000000111e-01 -4.228298407443210200e-02 -2.339859598694653986e+00 -1.169142038306729470e+00 5.823301491433312549e-01 -8.081985724331696375e+00 -3.797589972337138686e+00 -2.235644314850002146e-01 -1.068210350058179214e+00 6.135394559233900424e-02
2.000000000000000111e-01 2.320381888753731303e+00 3.584133919769248444e-01 -9.286757179839302268e-01 9.144962972424659498e+00 1.797055969750014137e+00 1.521388018397378694e+00 -1.979166230203300403e+00 1.097375253062042644e+00 -9.086383778499577124e-01
2.000000000000000111e-01 1.240976967463699454e+00 5.767157957141292313e-01 -3.877029436855121691e-01 5.127114757930936406e+00 5.104747235388169102e+00 2.811445191033866919e+00 -1.411618830972717564e+00 5.578939698536565794e-01 -4.266426693507894274e-01
2.000000000000000111e-01 -6.183696500678893537e-01 -2.052292681733255963e-01 1.062884451851792811e+00 1.117746826830049223e+00 -2.194135832181244083e+00 4.913935643793237773e+00 5.830791308948009011e-01 -1.849702544535568594e-01 1.763019130122224221e+00
2.000000000000000111e-01 2.236898761692040161e+00 1.035501022702644658e+00 -1.748149307105002270e+00 2.753784786353021374e+01 6.806351788899436706e+00 -2.030398804238420141e+01 -1.720659399611626839e+00 9.798266126681859367e-01 -5.723369920806001820e-01
2.000000000000000111e-01 6.647023145965461621e-01 -2.999239160802277260e-01 2.631493410805822553e+00 1.191531056911009356e+00 5.242716804287030463e+00 4.289111726288233228e+00 -2.242880105773636057e+00 -1.565798704276393893e+00 -1.214715150843223290e-01
2.000000000000000111e-01 1.556316670245324607e+00 -1.452478070131259402e+00 2.277652123742974766e+00 3.081297568311842205e+00 -1.769853415498807703e+00 2.464212951620428527e+00 4.655558135037913756e-03 -1.120947515242226161e-01 9.164997665003927763e-01
2.000000000000000111e-01 -1.788759139003030407e+00 2.802770764597844466e-01 -1.723517286667497039e+00 -1.570465710107933788e+00 -2.039501703978086056e+00 -5.269989839077213745e+00 1.699226508802586522e-01 -6.679689897872609361e-02 -1.017354596041230852e-01
2.000000000000000111e-01 2.674773838960744499e+00 7.855116663863122017e-01 1.489900243397590085e+00 1.157387545977140419e+01 2.495109908882166216e+00 5.294789756536185443e+00 9.575996716961209243e-01 -3.800212820832296057e-01 -5.476042479688690845e-01
2.000000000000000111e-01 -1.397899804577122485e+00 -3.106272270015915993e+00 2.254537110472840666e-01 -5.348473233624980061e+00 -1.187890787295936512e+01 1.495616154627852634e-01 1.733335360229991018e+00 1.607423515250675505e+00 -1.463360001873950322e+00
2.000000000000000111e-01 -2.820368479664345229e-01 -2.689794003261944511e+00 -3.503635433623682793e+00 -2.422543817967137691e+00 -8.103159604326945598e+00 -4.592497445601077644e+00 -1.481259929826439725e+00 -5.562455566616666403e-01 6.364195616805071731e-01
2.000000000000000111e-01 1.197066963148343544e-01 -3.225252024133032358e-01 -8.069584026164361434e-01 1.783205046302756891e+00 2.232608987936705258e+00 -1.159834596183680233e+00 -1.069776904912365989e+00 9.217015482178823049e-01 5.922274772907178964e-01
2.000000000000000111e-01 8.615505343957380324e-02 1.865803727818307944e+00 2.533897546876974882e+00 -6.311839767445189819e-01 5.016950102412753409e+00 6.926881972048193781e+00 7.915148001624806584e-01 -1.015363135660433791e+00 -8.048018562985213009e-01
2.000000000000000111e-01 2.859593117373682158e+00 9.166690579386350679e-01 -2.372167666657746032e+00 1.688573933264803983e+01 5.323000556550988804e+00 -1.812001060519777695e+01 1.082903688098803552e-01 -5.069023257663189952e-01 9.891051370425618661e-01
2.000000000000000111e-01 1.763528294717202072e-01 -6.534292271505914851e-01 -1.833144327193169387e-01 1.063996752694165693e+01 -7.597382996521309551e+00 -2.660781195118221198e+00 9.536227737899083401e-01 -1.137963513142421279e+00 -4.347659099736778110e-01
2.000000000000000111e-01 1.124066009857875414e+00 6.749301889888190686e-01 3.231921766501590909e-01 1.921144352698851421e+00 -9.366449049370283442e-01 -2.159046378871226357e-01 -6.732880253705347817e-01 2.568116709601713232e-01 -1.128152052396058647e-01
2.000000000000000111e-01 -5.582075878773983257e-01 1.485351034103453149e-01 3.324088788943714845e-01 -3.510605165633133407e+00 1.863553750458262215e+00 -5.697683345889012152e+00 2.992763546852804102e-01 -5.328473851187549570e-01 -1.297512116512353542e+00
2.000000000000000111e-01 -2.360410590929163527e-02 -3.692881012364127025e-01 1.246081945772039151e-01 3.375767231862809581e-01 3.557596045143924357e+00 9.044375754871298412e+00 5.847261847852484040e-01 -9.341694633415285054e-01 1.877333420170706590e+00
2.000000000000000111e-01 1.163277772681205580e+00 -7.375468490225539631e-01 1.813536693927763732e+00 -4.006527666218900330e-01 4.561657421972371562e-01 4.383795232444883894e+00 4.795365590435126668e-01 6.818718284222321513e-01 -5.250361889456554021e-01
2.000000000000000111e-01 -9.551353376000585316e-01 2.792551581352469836e-01 1.883947865759178220e-01 3.274980264215797909e+00 -1.107073550125508454e+00 1.288053399811003974e+00 9.645143198464114498e-01 4.682952647395684509e-01 3.107797749933667864e-01
2.000000000000000111e-01 -1.364010180683870033e+00 1.223532727640854523e+00 3.136544638075763891e-02 -3.213248402900878986e-01 -9.797567088293072102e-01 7.433914083905672765e-01 -7.817659407701461616e-01 1.594335185503471530e+00 1.721765692341389320e+00
2.000000000000000111e-01 5.294827488513331737e-01 -2.563914265928102232e-02 3.188459838303113469e-02 -3.866330928962745439e+00 -4.093397979406955933e+00 1.406666601573348663e+00 -1.439414282393020494e+00 1.777630996610942260e+00 -3.724604661493456925e-01
2.000000000000000111e-01 1.293902753926274407e+00 9.682533981653367317e-01 1.019629836149127833e+00 1.910341390634462622e+00 4.087245887651620002e+00 8.897628695925593689e+00 -1.938215621452891391e+00 -6.327112457936556744e-02 1.103146849808664287e+00
2.000000000000000111e-01 -1.054543142436207281e+00 -1.768811029846280025e+00 2.909186952686401817e+00 -1.464397911145471243e+00 -4.493726695613521116e+00 -8.022564929962523461e-01 -6.640342753126907693e-01 -4.956786245842724203e-01 1.591482884198499592e+00
2.000000000000000111e-01 3.615357020119848164e-01 -2.124997519266704327e+00 3.242137147351526583e+00 -8.444047563248018307e-01 -3.971143943573258728e+00 9.515726691287074601e+00 2.746750731775911558e-01 -4.907863013043615164e-01 -7.109935330655287045e-01
2.000000000000000111e-01 1.303463779393799093e+00 -2.033304771570755287e-01 8.443530606945244266e-01 1.813528415547299932e+00 -6.226551491047101372e+00 1.719324336672695708e+01 1.176877925213579978e-01 1.227415732175720919e-01 -8.556183829225534332e-01
2.000000000000000111e-01 3.694277340859365433e-01 -8.770388297286738633e-01 -1.875481689007976849e+00 5.563945418523958963e-01 4.463902752973256116e-02 -3.615307723391396166e+00 1.299762502845322132e+00 -1.351280231070889626e-01 1.318074112029440803e+00
2.000000000000000111e-01 4.985298127447002070e-01 -1.874904856332288539e+00 -1.759977670956944795e-01 -2.006341545127757753e-01 -1.085048236205690309e+01 2.071001859744700191e+00 -7.681547079383016507e-01 3.254067364212411273e-01 4.054419149060385641e-02
2.000000000000000111e-01 -5.218975785946768919e-01 7.104318090010305342e-01 5.072228768060324522e-02 -2.019349922618804971e+00 9.526423124929745967e+00 1.233169405118301531e+00 -1.180614442082631235e-02 -1.495239641433372180e+00 4.810501795975972161e-01
2.000000000000000111e-01 -3.068920653144089350e-01 -5.533928212970810057e-01 -1.417324924044848222e+00 -2.509492673816676511e+00 7.129116944498904429e-01 2.369530196388497600e+00 2.076422368118658213e+00 -8.757048250047075877e-01 -6.108924061946308104e-01
2.000000000000000111e-01 2.780685992849138533e+00 -2.145058131686493397e+00 3.000482854502052099e+00 6.128564770035511700e+00 -3.825534543194115233e+00 9.897887897951203939e+00 -8.641747394930455739e-01 8.021400794108747290e-01 -3.456058189353753418e-01
2.000000000000000111e-01 1.895565700915432750e+00 -2.154267932039734657e+00 2.329011085457498798e+00 7.006790081984823004e+00 -3.412631252844271490e+00 4.123598480044920578e+00 3.204707377370521471e-01 3.685896668600501247e-01 -1.308636580605316846e+00
2.000000000000000111e-01 6.865507553975358501e-01 6.612139357784291294e-01 -2.836636817222562001e+00 -3.312555422468764110e+00 2.220978177684667987e+00 -2.042812536729054429e+01 8.395407107930650259e-01 -1.097577593934054407e+00 -2.811400118188451258e-01
