# Total Kinetic Energy: 99687.71037709832 J
# Total Potential Energy: -298.09197030476395 J
# Total Energy: 99389.61840679355 J
# mass x y z vx vy vz ax ay az
2.000000000000000111e-01 1.154675352042761505e+00 -1.255495762562017337e+00 3.888524471457993403e+00 4.052894640486369160e-01 -1.061901281408646369e+00 1.970643071573900507e+00 -8.966043962736165440e-01 6.963139999641968503e-01 -4.318718804335897610e-01
2.000000000000000111e-01 1.469065774412379843e+00 6.545465575502801059e+00 3.199187795568983805e+00 9.844794488881640770e-01 2.679743403288416648e+00 2.418241396923300091e+00 -8.638420432590800946e-01 7.477608111009810266e-01 -8.297878829518955390e-01
2.000000000000000111e-01 -7.438731744224355014e-01 1.357473295884721987e+00 9.455640172102128815e+00 3.359114734625421872e-01 5.005879303035665195e-01 5.584558800770721199e+00 9.641895495286434414e-01 -7.350472763951455546e-01 1.373103499606344924e+00
2.000000000000000111e-01 2.411708931968033820e+00 1.402222904796251335e+00 3.573689111831576781e+00 7.915694282378977764e-01 1.713892042840535535e+00 8.112604729507767454e-01 -5.460842563394595617e-01 -1.562379614909943371e+00 1.380396280783603880e+00
2.000000000000000111e-01 -1.044021168526096721e+00 -1.877616588123248054e+00 1.912523195708771273e-01 -3.284859085861250527e+00 -8.547863113019367187e-01 -2.073791962321196447e+00 8.297013594807493009e-01 2.265106253250432911e+00 9.937754100366300372e-03
2.000000000000000111e-01 -1.532105148402418315e+01 -3.349080043186454958e+01 1.052874021598152510e+01 -1.069545455316730020e+01 -2.196605629673164373e+01 7.470643774384840619e+00 5.503421260199654018e-03 -6.324108284545006953e-01 -1.983938834140225038e-01
2.000000000000000111e-01 1.412461743846897155e+00 5.414434834097268112e-01 -1.436676108055391365e+00 1.403488120942154804e+00 -1.194237312302231846e+00 1.592284876344450595e+00 1.185290918075305733e+00 1.180817650969794297e+00 4.342061600991873882e-01
2.000000000000000111e-01 1.518253799589396102e+00 3.852337113526119960e+00 5.593565958411438999e+00 -5.764302661031464048e-01 6.040389620607665710e-01 2.928858266340490069e+00 6.301270386930696299e-01 -1.153803380428851000e+00 -5.839674396223903247e-02
2.000000000000000111e-01 1.042876284520500185e+00 -5.782038314851989380e-01 8.043473621406540985e+00 -1.529020388788659979e+00 9.627426155486048520e-01 3.178570826881474076e+00 4.819874889720659472e-01 6.233897045599963160e-01 7.806367264006173201e-01
2.000000000000000111e-01 -4.398639195284046899e+00 -7.266804260648548563e+00 -9.455214794402840184e+00 -2.605601577776962774e+00 -4.146405414983141746e+00 -5.424262715035353288e+00 -5.073469463042808991e-01 -1.432177634536540234e+00 -5.631686098712457289e-01
2.000000000000000111e-01 -5.092406761053460684e-01 -6.874628954151416060e-01 -5.715181634754702422e-01 2.956956633613983865e+00 1.370727103242444511e-01 2.634218041192732951e-01 1.112131061580115432e+00 -1.326002105085030414e-01 1.219961580377953547e+00
2.000000000000000111e-01 -2.314674597573041126e+01 -3.998340543935411162e+00 2.033776472837427818e+01 -2.225454886302068402e+01 -4.441952062039506544e+00 1.945026751758625849e+01 2.699041547263745788e-01 1.989345446514553695e+00 -2.737681246386168277e-01
2.000000000000000111e-01 -2.779233534760868540e+00 2.247605048195825184e+00 4.988285403724937339e+00 3.348674690212936622e-01 -4.118464961077993869e-01 2.739504590098472470e+00 -2.937911826042545194e+00 1.305695967249574041e+00 3.492309820269403620e-01
2.000000000000000111e-01 8.708277236393099585e+00 -1.334899513343126509e+00 -7.290662538708101437e-01 6.267943610499806084e+00 -6.359347784639621803e-01 -4.486136774868242916e-01 -7.536403006720584496e-01 -1.568655641053418592e-01 -1.413495907973157106e-01
2.000000000000000111e-01 3.487174935078724225e+00 -2.392874291526387864e+00 -3.591037891220961509e+00 1.240354802809266355e+00 1.799716220564867020e-01 -1.561664472116473412e+00 1.119353522796681794e-01 2.620936284584423070e+00 4.785062303361312108e-01
2.000000000000000111e-01 1.742430294511655653e+00 1.844546799595364206e+01 -2.254144128526446522e+01 1.127948250520137252e+00 1.339449726420977349e+01 -1.619895334433745404e+01 2.322625098397875565e+00 9.424909421025224887e-01 3.856692653494809275e-01
2.000000000000000111e-01 -1.338093434844082452e+01 -1.216358588106236738e+01 1.362543954460042706e+01 -1.088119913018197238e+01 -9.866424214549439853e+00 1.049512140472278254e+01 -7.799893016850598104e-02 -3.623660123757801999e-01 9.463559795580524237e-02
2.000000000000000111e-01 -3.303166802624327159e-01 1.160023769480597933e+00 -1.705610437861516893e+00 3.752696565977338139e+00 -6.171669768312720850e-02 -2.515385025483616310e+00 -2.822203611955039215e-01 -3.743734202435109598e-02 6.932200910895870427e-01
2.000000000000000111e-01 -3.296989438556440222e-01 1.268725036085597502e+00 3.727119352719847178e+00 7.448199187829464663e+00 6.897567007458017763e+00 8.057759626595101921e+00 1.092051761507943697e+00 -1.776818162249802213e-01 -1.957260997796935964e+00
2.000000000000000111e-01 -4.846998476496881203e+00 4.161003993659864619e+00 4.477006858121132638e+00 -1.742086968354871201e+00 3.011696255586119086e+00 2.839949762893468233e+00 -1.664407931597272627e-01 -9.650068241224063481e-01 3.546644428898021451e-01
2.000000000000000111e-01 -2.853990833446720110e+00 -1.800031775659539868e+00 -3.684667775376219145e-01 -2.973587063111032158e+00 -6.144870656352492411e+00 -9.476092502213333546e+00 1.614489561108785332e-01 -5.663598480014984116e-01 -1.317715235282914538e-02
2.000000000000000111e-01 -7.316972955744106777e+00 1.121238548960857706e+01 1.758768875310093449e+01 -5.213524472982753899e+00 7.459698127174970494e+00 1.197045284010208022e+01 6.295661757179298323e-01 -1.537997823929941443e+00 3.874429109039332908e-01
2.000000000000000111e-01 -1.363314784589033435e+00 5.289589750585909078e-01 -8.363739352221924994e-01 1.276274057755439451e+00 2.253412272949971040e+00 -2.128133599388506436e+00 1.218003542201554712e+00 2.790102563485865605e-01 -9.241176421201500180e-01
2.000000000000000111e-01 -5.668748204604848739e-01 -4.095120652108231729e-01 -1.137702742459301142e+00 5.154235473155662106e+00 1.450009306862314551e+00 2.942148605473361433e-01 1.613871496129092753e+00 6.812046624892643676e-01 -6.590206085151249261e-03
2.000000000000000111e-01 -9.803795895687470452e-01 -4.406727338518687809e+00 -3.274936027776313097e+00 -1.492738216378150851e+00 -6.030224884089689930e-01 -1.244148075594627034e+00 -5.432097655884298160e-01 8.423833018329252020e-01 -1.494328948952003411e-01
2.000000000000000111e-01 5.446928334147727924e+00 -4.401386533039587157e+00 -1.105390568363580783e+01 3.346396328613877813e+00 -9.869214357922224679e-01 -6.701759052515120274e+00 -8.719875287864491120e-02 -3.539668042882763155e-01 5.144601091997094144e-01
2.000000000000000111e-01 -9.173906294514739823e-01 -3.098470179337606267e-01 -2.125847145554310202e+00 1.861605857126742203e+00 4.183860216930330167e-01 3.262061537622233498e+00 2.974928503074385500e-01 1.880010619296722807e-01 1.301228515883393833e+00
2.000000000000000111e-01 -2.454111728309286422e-01 -8.156976336902205249e-01 -1.099496295857502304e+00 -4.688631818281353780e+00 -7.079224668802659437e-01 -3.740558481003880775e+00 9.941663314276857899e-02 -1.730516482962342284e+00 1.597179739205750515e+00
2.000000000000000111e-01 -1.288878634784287325e+00 -1.030580211478594910e+00 -7.331550445589471998e-01 -2.413139615387525527e+00 -4.193268874462861895e+00 -8.189236712461505086e-01 3.571589793730877149e-01 5.647964869292386725e-01 -5.523340820094913006e-01
2.000000000000000111e-01 -8.920694394586884401e-01 -2.143603890932199718e+00 9.782142282215833262e-01 3.180498993687279619e+00 -3.749219432314290668e+00 2.034381198838176363e+00 -1.931708422166933392e-01 -5.189179524242124586e-01 -1.345254381590285479e-02
2.000000000000000111e-01 -1.220722153727712200e+00 2.181267073291910386e-01 -3.347103368297379422e-01 3.096975195149195947e+00 -2.187457672753352789e+00 2.492504105013032767e+00 -9.242347930784594601e-01 7.576997478856134505e-02 -1.392233521600583779e-01
2.000000000000000111e-01 -3.372208226050396274e+00 -1.389501342954326812e+00 -3.160350050630293506e+00 6.836282817047067972e-01 7.579908497942923207e-01 4.561215309922440064e-01 5.957694771162939107e-01 6.344032431227376589e-01 1.694406892158661637e-01
2.000000000000000111e-01 1.410739279880188768e+00 -1.267191958762089010e+00 5.401812605602265727e+00 2.242410133164597141e+00 2.278050097147525099e-01 2.482747167137052902e+00 -1.336421660492691510e+00 -7.612067198992983341e-01 -2.184442207875056940e-01
2.000000000000000111e-01 -1.697434537473536409e+01 9.367457456761419721e+00 1.509468857121271546e+00 -1.429597503051562946e+01 7.877987627120221603e+00 4.739181806839108946e-01 1.830918505940636765e+00 1.181604583309558532e+00 -1.100132766297575060e+00
2.000000000000000111e-01 1.300015828305699728e+01 -1.110797857910693187e+00 -1.555854630816854156e+00 9.432684305904766475e+00 -4.195915960407444745e-01 -1.057134731100080494e+00 4.857270106093193318e-01 7.824859205214137470e-01 6.107351836588704730e-01
2.000000000000000111e-01 4.120596277406860963e+00 2.168654893514136539e+00 -1.338941761092443450e+00 3.946288292698514888e-01 7.003719417890672538e-01 6.273442112681654192e-01 -4.083798253849345583e-01 9.460632332611424999e-01 1.022129414245795065e+00
2.000000000000000111e-01 -1.087344965021574694e+01 -2.194350961550548096e+00 -8.852913268365103505e+00 -6.745485480211915075e+00 -1.013362704575752504e+00 -5.415842848175167923e+00 -2.107969015098144078e-02 4.127555384102606084e-02 1.096106413350836695e+00
2.000000000000000111e-01 -6.191710468039730575e-01 -1.126494922061328730e+00 -2.110036331485855232e+00 2.990010098116873571e+00 3.224422494120554372e+00 1.604388684038287494e+00 1.425218080926183295e-01 -2.681533460908795963e-01 1.418374357297791155e+00
2.000000000000000111e-01 2.518595511815336607e+01 -3.406620355254726284e+00 -1.442288540298066835e+01 1.692689299992417418e+01 -1.482029983374540727e+00 -8.889824926525681903e+00 -5.235611869307986721e-01 1.637598205090995407e-02 1.805484899473831950e+00
2.000000000000000111e-01 1.237551885972423493e+00 1.377180646342873516e+00 4.625101953408969457e+00 -1.973270627770942059e-03 2.612472344310950767e+00 4.043425998029044344e+00 -3.163202295495595173e-01 9.522321988995448294e-02 -9.461629756402882840e-01
2.000000000000000111e-01 -1.288168296355259423e+00 -3.547877043211409426e-02 -1.357355896508907200e+00 4.002045569548082771e-01 -3.402676857095371599e+00 -3.981557186839757456e+00 4.174437476093765254e-01 -1.380181655339153934e+00 7.162574535250282315e-01
2.000000000000000111e-01 8.464788232595649831e+00 8.467843900813264213e+00 5.660611919924082081e+00 5.993045967738859225e+00 6.046947795032470374e+00 4.503217062150572048e+00 4.525296649238253477e-01 3.344140889732000188e-01 -8.236417003079894439e-01
2.000000000000000111e-01 -3.457112358918161021e+01 -4.925501129744180417e+00 -1.094080133694016688e+01 -2.356356398886706671e+01 -3.195282552657643826e+00 -7.860194548182068530e+00 9.444238424574774582e-01 -3.599042377706139217e-01 -1.177655621319875223e+00
2.000000000000000111e-01 1.975144446763745648e-02 -1.238893496472160960e-01 -3.250577968615299407e-02 2.720432769530725103e+00 -1.929087964162205404e+00 1.792329591917118714e+00 -7.094150650241234368e-01 -3.432787591816053863e-01 1.729752256166292357e+00
2.000000000000000111e-01 5.139962215592254857e+00 3.078068544605369272e+00 -7.628921368964377336e+00 2.053799658802426542e+00 1.905513026336736804e+00 -4.912498180010075544e+00 -1.396083541317549193e+00 8.191167938667391901e-01 -3.516869100966322215e-01
2.000000000000000111e-01 -3.208975524117264194e-02 1.736576791058905833e+00 3.480956961745020006e+00 -2.194990476300433979e+00 2.712899634135168991e+00 9.733395950794734297e-01 2.262981583088385928e-01 -7.784210350138612844e-01 -1.020055248432633954e+00
2.000000000000000111e-01 -5.733188998720419427e+00 -7.568638211900224455e+00 -1.742021745548188782e+00 -3.298483270838688863e+00 -3.586289537229113478e+00 -1.062994920810811372e+00 -1.144496758295514005e-01 5.738673722206977246e-01 1.563535298382324745e-01
2.000000000000000111e-01 2.457286528169600359e+00 1.703271884534067082e+00 3.488940175802017762e+00 -1.041276934522543884e+00 5.469871599168023568e-01 -1.476295457697799351e+00 8.956669621207787868e-01 -1.940213859434855470e+00 -4.546162688754084025e-01
2.000000000000000111e-01 -5.691832340266143930e+00 1.435958321334630750e+00 -1.876350257053871928e+01 -4.035885365164515903e+00 1.045181564864806845e+00 -1.235319360312343484e+01 1.287839676788305132e+00 1.211425043583911343e-01 -4.177786500589580343e-01
2.000000000000000111e-01 -5.103709956881065379e-02 -2.616046439193085993e-01 -1.130251906305922205e+00 -6.087845115342600089e+00 -2.806426037524242023e+00 2.474063601912469768e+00 1.645292458308862171e+00 6.000702075107278155e-01 -1.452035520500345012e+00
2.000000000000000111e-01 -9.490091606595635554e+00 -4.921002360726384417e+00 -3.042981437853099713e+00 -5.950302462868532594e+00 -2.824584722965108874e+00 -2.491612463648310793e+00 8.565027547425647647e-01 4.045933102233424949e-01 2.699203104838276412e-01
2.000000000000000111e-01 -7.484584066798147806e-01 -1.670722280729102449e+00 6.530457518252257287e+00 -2.613598644539620874e+00 2.396099220642072813e-03 2.504747328144119933e+00 1.079373184858595902e+00 1.168430214982944665e-01 2.078051804633141320e+00
2.000000000000000111e-01 -3.064984104403768450e-01 8.096175995665824132e-01 5.418152362884820494e-01 -1.705484057739406145e+00 -2.278736101482274901e-01 5.179229813524635073e-01 -3.116156579120536452e-01 -9.656805898680476119e-01 1.049679311352054611e+00
2.000000000000000111e-01 3.473468685768079922e+01 8.781609631236332092e+00 1.328077549968982973e+00 2.352115861977331690e+01 6.137305721344954890e+00 4.979309127006085189e-01 -1.178040336042603387e-01 -1.359939040977154734e-01 2.226318798930941589e-01
2.000000000000000111e-01 1.999059184568460656e+00 -7.055584755529509700e+00 -6.386033588767450198e+00 1.434195283190830769e-02 -5.071918540403570930e+00 -4.719420203548166270e+00 6.605003871932092485e-01 2.834908369412093565e-01 8.112638664168756453e-01
2.000000000000000111e-01 -2.211755850402609269e+01 8.557090175213293293e+00 1.681520369750835542e+01 -1.361423615552438271e+01 6.115476100991533492e+00 1.121335461968127056e+01 -9.524643725018940854e-01 1.203399519389974637e-01 -7.508942591848019044e-01
2.000000000000000111e-01 1.590443222468442830e+00 6.848573602420097162e-01 -5.038363940824909237e-01 -2.056844078952213106e+00 -1.421466679554484580e+00 -1.922557182514623930e+00 -8.714850382688268393e-01 -1.451128569074773278e-01 -4.430263072455225548e-01
2.000000000000000111e-01 2.836396438969881917e+00 3.193350215316976559e+01 -9.345137163796689350e+00 1.416751482055625067e+00 2.149408939588427359e+01 -5.705809660324943522e+00 6.653372657258510570e-01 -5.790713660383163264e-01 -9.607341965854655497e-01
2.000000000000000111e-01 -7.604734803100376972e-01 2.202139713404435428e-01 -7.752704146887581249e-01 -1.324351345567059912e+00 -4.275020517944104093e+00 3.627033729757600966e+00 -2.987053318640132127e-01 -6.339671642628654791e-01 -2.061552010098763432e+00
2.000000000000000111e-01 3.655369711497473251e+00 7.042452741933592719e+00 3.756329499960606721e-01 2.343457828055621750e+00 2.116195131435743448e+00 -1.024785867578491105e+00 -7.224952440073477700e-01 6.793649994325586805e-01 -6.342272416482459541e-01
2.000000000000000111e-01 -9.119769397586074966e-02 -2.941031060197875746e+00 -4.161534973140240012e+00 -6.474252646545188838e-01 -2.196315634145303564e-01 -3.722450404283048075e-01 -7.648265045724579325e-01 -5.277428730811927204e-01 -7.285606645227563627e-01
2.000000000000000111e-01 -9.101824437407789181e-02 -5.036460042414577787e-01 -3.426177335736972362e-01 4.065979111058886097e-01 1.991456342076139974e+00 2.469439545520546897e+00 1.401336077286875259e+00 1.994418133751360456e+00 -2.493633451681860791e+00
2.000000000000000111e-01 -3.544490234380444971e+00 -9.608516825171304898e-01 -3.777180830932685751e+00 -1.935762103011736124e-01 -1.541080876639294273e+00 7.563332877636778084e-01 -1.686947643786270434e-01 -1.112949139721709502e-01 1.785866028079163836e+00
2.000000000000000111e-01 -1.231763062951868104e+00 -7.030904141021382392e-01 9.989903964145591120e-01 1.655449736782295123e-01 1.780908123064784299e+00 1.769808234697062943e+00 1.095186438311185118e+00 -2.027299091432454570e-01 -1.658432873299482635e+00
2.000000000000000111e-01 1.067424155138973374e+00 -1.472157416120728923e+00 4.517288347253933800e+00 4.309765505298604471e-01 7.082755946186335416e-01 4.937206393680300565e+00 -6.831357477726296423e-01 -3.446388259010521038e-01 -2.665593068137567245e-01
2.000000000000000111e-01 -5.051863088862479145e+00 -4.195366831904773441e+00 -2.890796610137490674e+00 -3.108448961588294868e+00 -7.032525323860072675e-02 -9.954236538711037918e-02 -1.592421874085047095e+00 1.156823731462514049e+00 1.069107359911631194e+00
2.000000000000000111e-01 -4.740359960216304458e+00 2.449786499320338429e+00 -2.382334940857577354e+00 -1.925578598217365434e+00 8.287368416940000815e-01 -1.539987629392085111e+00 -1.223310586007041900e+00 9.809448759719592292e-01 3.204576417922734843e-01
2.000000000000000111e-01 5.609255358582783124e-01 -6.518279822387319733e+00 -4.203767343931771983e+00 3.758493537746989133e-01 -2.420219888700816835e+00 -2.522288295728110086e+00 -2.235644314850002146e-01 -1.068210350058179214e+00 6.135394559233900424e-02
2.000000000000000111e-01 7.958231829136408031e+00 1.703781133763913491e+00 4.899569150410555407e-01 4.234097708850300457e+00 8.996341319490446242e-01 1.493245253336624945e+00 -1.979166230203300403e+00 1.097375253062042644e+00 -9.086383778499577124e-01
2.000000000000000111e-01 1.952433796775755459e+00 2.058506539603500940e+00 3.168746790708228733e+00 -1.060214919656585320e+00 -8.890398979494399390e-01 3.850189177088529924e+00 -1.411618830972717564e+00 5.578939698536565794e-01 -4.266426693507894274e-01
2.000000000000000111e-01 7.643957489369880287e-01 6.853394932033214371e-01 2.180212150100704793e+00 1.250635595707258352e+00 1.182258218314804266e+00 -3.379336480926388442e-02 5.830791308948009011e-01 -1.849702544535568594e-01 1.763019130122224221e+00
2.000000000000000111e-01 2.859745275037068168e+01 6.845132803452117720e+00 -2.178717641981301512e+01 2.610313976395613267e+01 5.711856218973331956e+00 -1.992201583430002998e+01 -1.720659399611626839e+00 9.798266126681859367e-01 -5.723369920806001820e-01
2.000000000000000111e-01 -5.722017026477838053e-02 1.707870075191633363e+00 3.554714162577091052e+00 2.185575068294051349e+00 -3.749535202037873605e-02 -8.392313317709547693e-01 -2.242880105773636057e+00 -1.565798704276393893e+00 -1.214715150843223290e-01
2.000000000000000111e-01 2.175027950851203595e+00 -5.836083578075601519e-01 3.643241994416229534e+00 -1.602005892832632616e+00 2.125668694912453915e+00 5.710544436994067219e-01 4.655558135037913756e-03 -1.120947515242226161e-01 9.164997665003927763e-01
2.000000000000000111e-01 -1.382004328105032709e+00 -2.714517099148849866e+00 -3.535485371033332935e+00 1.285135534163854176e+00 -2.169190009718089840e+00 8.025610120796252689e-01 1.699226508802586522e-01 -6.679689897872609361e-02 -1.017354596041230852e-01
2.000000000000000111e-01 1.212009858040231514e+01 2.728138782240419946e+00 5.943598676208801557e+00 8.622132838025908796e+00 1.747978884588040849e+00 4.114294597183844715e+00 9.575996716961209243e-01 -3.800212820832296057e-01 -5.476042479688690845e-01
2.000000000000000111e-01 -6.015590466086485399e+00 -1.303526072029410443e+01 -1.432640825081221980e-01 -4.289035862411967770e+00 -9.120101119281203594e+00 -4.913888696855667204e-01 1.733335360229991018e+00 1.607423515250675505e+00 -1.463360001873950322e+00
2.000000000000000111e-01 -2.833257244985444512e+00 -9.251095762761245567e+00 -6.576428333086774991e+00 -2.475780906642258028e+00 -5.691742429357304012e+00 -2.447998322032154395e+00 -1.481259929826439725e+00 -5.562455566616666403e-01 6.364195616805071731e-01
2.000000000000000111e-01 -6.373801601491430047e-01 -6.894108074894874649e-01 -1.299467657796844700e+00 -6.244600930782719495e+00 2.703026085292411507e-01 -4.201565154429721893e+00 -1.069776904912365989e+00 9.217015482178823049e-01 5.922274772907178964e-01
2.000000000000000111e-01 -7.171605323731369830e-02 4.633154969642159671e+00 7.264902919470256570e+00 2.271159675630539665e-01 1.429754156097295947e+00 3.522289744453572347e+00 7.915148001624806584e-01 -1.015363135660433791e+00 -8.048018562985213009e-01
2.000000000000000111e-01 1.909017091705601032e+01 6.111265388443889002e+00 -1.914425596298799803e+01 1.608318496575326861e+01 5.128898965016377431e+00 -1.652334591599618818e+01 1.082903688098803552e-01 -5.069023257663189952e-01 9.891051370425618661e-01
2.000000000000000111e-01 7.791660783458884687e+00 -4.646154448504795198e+00 -2.369900743070021409e+00 6.415110145607141767e+00 -3.042253670068165494e+00 -1.969110446427064343e+00 9.536227737899083401e-01 -1.137963513142421279e+00 -4.347659099736778110e-01
2.000000000000000111e-01 -2.096301237642085979e+00 -1.356553989004437133e+00 -8.681584939812625468e-01 -8.098417004081575055e-01 -1.556419855810000641e+00 -1.663376665980540459e-01 -6.732880253705347817e-01 2.568116709601713232e-01 -1.128152052396058647e-01
2.000000000000000111e-01 1.016735941213228467e-01 -1.132834081531431059e+00 -2.492829590591136402e+00 -5.920390921439019349e-01 -1.011754716619125638e+00 6.833240898729894264e-01 2.992763546852804102e-01 -5.328473851187549570e-01 -1.297512116512353542e+00
2.000000000000000111e-01 1.116179411351850836e+00 3.034480839230999094e-01 7.406654513804770801e+00 1.181239026005772130e+00 -1.044095409600092283e+00 4.946829129570027739e+00 5.847261847852484040e-01 -9.341694633415285054e-01 1.877333420170706590e+00
2.000000000000000111e-01 -9.326610102870054320e-01 2.306810477973183282e+00 4.013868333508924913e+00 -2.140107851173993936e+00 2.476797513935184991e+00 -9.953252740449076708e-01 4.795365590435126668e-01 6.818718284222321513e-01 -5.250361889456554021e-01
2.000000000000000111e-01 3.180138990565338553e+00 -1.031023101446066015e+00 -1.815380377220196184e+00 1.510119672737391561e+00 3.139940446173165173e-04 -1.894040425789640825e+00 9.645143198464114498e-01 4.682952647395684509e-01 3.107797749933667864e-01
2.000000000000000111e-01 -3.487829998237314544e-01 -7.487018548150851938e-02 -1.652756918079144155e+00 -3.211768404786052411e+00 -1.037314949940729480e+00 4.689756592035806415e-01 -7.817659407701461616e-01 1.594335185503471530e+00 1.721765692341389320e+00
2.000000000000000111e-01 -5.369057820053794394e+00 -1.496862396963760000e+00 -2.929907664088671204e+00 -3.261768833356889274e+00 -4.415677991459729390e-01 -3.256940279900569557e+00 -1.439414282393020494e+00 1.777630996610942260e+00 -3.724604661493456925e-01
2.000000000000000111e-01 1.209255748976926226e+00 3.099427112689851160e+00 7.634184478578753819e+00 -8.187809599685874629e-01 1.208414750381928915e+00 4.908445824311581163e+00 -1.938215621452891391e+00 -6.327112457936556744e-02 1.103146849808664287e+00
2.000000000000000111e-01 -1.280154095868203612e+00 -3.952779602086076594e+00 3.836720973832520865e-01 4.313522170923730359e-01 -1.196254903279809212e-01 -3.414111841696419791e+00 -6.640342753126907693e-01 -4.956786245842724203e-01 1.591482884198499592e+00
2.000000000000000111e-01 -2.075921076416286648e-01 -4.642835290393374059e+00 1.090852790118069038e+01 -4.040904507091433451e-01 -1.861082533014281282e+00 6.813584153232395302e+00 2.746750731775911558e-01 -4.907863013043615164e-01 -7.109935330655287045e-01
2.000000000000000111e-01 1.415693865706679544e+00 -4.752014795399633229e+00 1.598591766374895151e+01 -3.407783406779841401e-02 -4.079852649818659138e+00 1.414760964450504943e+01 1.176877925213579978e-01 1.227415732175720919e-01 -8.556183829225534332e-01
2.000000000000000111e-01 -1.857185100448227821e+00 3.285506346579222803e-01 7.130373862041764488e-01 -2.118653385692923941e+00 4.324538842927544424e-01 5.344883506098388359e+00 1.299762502845322132e+00 -1.351280231070889626e-01 1.318074112029440803e+00
2.000000000000000111e-01 -1.878593876663836593e-01 -9.560471877951769670e+00 1.238950200082450159e+00 -8.280848981713935242e-01 -6.391326289514183578e+00 1.149590356754550458e+00 -7.681547079383016507e-01 3.254067364212411273e-01 4.054419149060385641e-02
2.000000000000000111e-01 7.783139998635538181e-02 2.111967938385657995e+00 8.124332573897885545e-01 8.729993476887289994e-01 -2.170906566345775612e+00 3.779675978026823535e-01 -1.180614442082631235e-02 -1.495239641433372180e+00 4.810501795975972161e-01
2.000000000000000111e-01 -4.252518332546035285e-01 -5.121910353952825457e-01 -9.579189136076444733e-01 -2.051929697968723598e+00 2.575513680397586658e+00 2.529458267381262448e+00 2.076422368118658213e+00 -8.757048250047075877e-01 -6.108924061946308104e-01
2.000000000000000111e-01 7.630112058264898245e+00 -5.069472039682574760e+00 1.160843782522323941e+01 4.349735500043466985e+00 -2.573378565400985973e+00 8.035672224588438439e+00 -8.641747394930455739e-01 8.021400794108747290e-01 -3.456058189353753418e-01
2.000000000000000111e-01 7.208852343615707703e+00 -3.704874826712992064e+00 5.571331388760967229e+00 4.428864825665851157e+00 -8.814261459039072211e-01 2.768907079694578943e+00 3.204707377370521471e-01 3.685896668600501247e-01 -1.308636580605316846e+00
2.000000000000000111e-01 -2.856611979700285353e+00 2.338533863114188094e+00 -2.162465617807433205e+01 -3.607981495468042699e+00 1.549367049452063716e+00 -1.829981945385199538e+01 8.395407107930650259e-01 -1.097577593934054407e+00 -2.811400118188451258e-01
