# Total Kinetic Energy: 124192.16370663198 J
# Total Potential Energy: -581.6116693239261 J
# Total Energy: 123610.55203730805 J
# mass x y z vx vy vz ax ay az
2.000000000000000111e-01 1.216803468414588418e-01 -3.141120005936537396e-01 1.144701303456976405e+00 3.213732653745723589e+00 -3.555285995927929488e+00 4.939873249070001471e+00 -8.966043962736165440e-01 6.963139999641968503e-01 -4.318718804335897610e-01
2.000000000000000111e-01 5.408023402318266060e-01 3.007498233546315181e+00 8.741614580501789744e-01 1.053454572012714419e+00 6.050242299413023161e+00 2.866761604120696472e+00 -8.638420432590800946e-01 7.477608111009810266e-01 -8.297878829518955390e-01
2.000000000000000111e-01 -5.866175526852225319e-01 6.978084514655565895e-01 3.260562951942292731e+00 -1.202969889437914608e+00 1.289420390452339138e+00 9.265875654450095311e+00 9.641895495286434414e-01 -7.350472763951455546e-01 1.373103499606344924e+00
2.000000000000000111e-01 5.484209342720357538e-01 -3.025352786642162423e-02 2.760821371534862401e+00 4.606777663852956728e+00 1.322943014001627615e+00 4.195998051255686256e+00 -5.460842563394595617e-01 -1.562379614909943371e+00 1.380396280783603880e+00
2.000000000000000111e-01 5.461365415096179898e-01 9.958829749451485469e-01 1.750431775770180248e-02 5.977227554726601833e-01 -5.403585746829464576e-01 2.714560715612661657e+00 8.297013594807493009e-01 2.265106253250432911e+00 9.937754100366300372e-03
2.000000000000000111e-01 -5.767753741922557964e+00 -1.386016686995782088e+01 3.856302383255192368e+00 -1.080385780169576471e+01 -2.222367494225818163e+01 7.545333621552271275e+00 5.503421260199654018e-03 -6.324108284545006953e-01 -1.983938834140225038e-01
2.000000000000000111e-01 -1.226837145404315210e+00 -1.093640275155900454e+00 -1.154192507968466064e+00 6.561305931814572778e-01 1.660191513459533974e+00 -4.966438436546810609e-01 1.185290918075305733e+00 1.180817650969794297e+00 4.342061600991873882e-01
2.000000000000000111e-01 1.477098271664361029e+00 1.930586945495911699e+00 2.393393036553886244e+00 1.089313801563314144e+00 4.882786002041812345e+00 4.810612380691942747e+00 6.301270386930696299e-01 -1.153803380428851000e+00 -5.839674396223903247e-02
2.000000000000000111e-01 1.863210694552053237e+00 -1.044767208866118402e+00 3.740193900160520446e+00 5.299577141998814689e-01 2.029712297264912590e-01 7.573315402303863131e+00 4.819874889720659472e-01 6.233897045599963160e-01 7.806367264006173201e-01
2.000000000000000111e-01 -1.804554491146563855e+00 -3.259864642691104653e+00 -4.040657865641275492e+00 -3.540708327659922272e+00 -5.182564897835699291e+00 -7.256211258444341894e+00 -5.073469463042808991e-01 -1.432177634536540234e+00 -5.631686098712457289e-01
2.000000000000000111e-01 -4.724078408808238261e-02 -3.920727936074887565e-01 -2.465880336299427267e+00 -2.702092510790238489e+00 1.900521870295499349e+00 -1.975818890023571139e+00 1.112131061580115432e+00 -1.326002105085030414e-01 1.219961580377953547e+00
2.000000000000000111e-01 -3.177878229227282691e+00 -2.465994809233380131e-02 2.891866770083611815e+00 -2.306419347110577434e+01 -4.502080656336779896e+00 2.010646741550553074e+01 2.699041547263745788e-01 1.989345446514553695e+00 -2.737681246386168277e-01
2.000000000000000111e-01 -2.259838307830727810e+00 1.911767777540055890e+00 1.679923411446388570e+00 -1.724084164545097497e+00 2.136472149623594774e+00 5.087144317815220695e+00 -2.937911826042545194e+00 1.305695967249574041e+00 3.492309820269403620e-01
2.000000000000000111e-01 2.180259011402662317e+00 -5.578149619908393531e-01 -2.377786793894987871e-01 9.549664933446356585e+00 -1.429328449002185142e+00 -6.990657882373518817e-01 -7.536403006720584496e-01 -1.568655641053418592e-01 -1.413495907973157106e-01
2.000000000000000111e-01 1.357870291261960016e+00 -1.948132268970815595e+00 -1.476024945866064142e+00 2.404645219671857070e+00 -3.132981298937089321e+00 -1.260580566051063167e+00 1.119353522796681794e-01 2.620936284584423070e+00 4.785062303361312108e-01
2.000000000000000111e-01 7.324937613308891704e-01 6.424579756044529688e+00 -8.011837163907514991e+00 1.149240950906917247e+00 1.373313091108308726e+01 -1.658110391332714784e+01 2.322625098397875565e+00 9.424909421025224887e-01 3.856692653494809275e-01
2.000000000000000111e-01 -3.533587770182819554e+00 -3.230428956491305570e+00 4.121031893703698046e+00 -1.149082370609828097e+01 -1.042691421968268806e+01 1.111799089016668596e+01 -7.799893016850598104e-02 -3.623660123757801999e-01 9.463559795580524237e-02
2.000000000000000111e-01 -1.972981558094456245e-01 -1.213230654042424250e-01 -1.854693211244598405e+00 -2.127180661773994785e+00 -2.733113879543721314e+00 1.425121251016788326e+00 -2.822203611955039215e-01 -3.743734202435109598e-02 6.932200910895870427e-01
2.000000000000000111e-01 -1.161008751324599908e+00 -1.051797110739464136e-01 5.087376944082521169e-01 -5.136289978976265047e+00 -1.610557316973105779e+00 3.657321007892269105e+00 1.092051761507943697e+00 -1.776818162249802213e-01 -1.957260997796935964e+00
2.000000000000000111e-01 -2.138278810692435972e+00 8.738344735041679856e-01 1.581511238697683730e+00 -5.389258681869977252e+00 4.326767846512662885e+00 4.089522745351774624e+00 -1.664407931597272627e-01 -9.650068241224063481e-01 3.546644428898021451e-01
2.000000000000000111e-01 -1.173455445716115708e+00 -2.115870087964150381e-01 7.703790970155749429e-01 -3.764635776644938314e+00 6.097850107365315742e-01 3.378537750717292454e+00 1.614489561108785332e-01 -5.663598480014984116e-01 -1.317715235282914538e-02
2.000000000000000111e-01 -2.592520265021806658e+00 4.429512646598168679e+00 6.738358039053211179e+00 -5.485602403881980393e+00 7.928754478853458743e+00 1.260927928525089214e+01 6.295661757179298323e-01 -1.537997823929941443e+00 3.874429109039332908e-01
2.000000000000000111e-01 1.842646722240337265e-01 -3.441478000830560657e-01 -2.016028689417654063e-01 8.765734947423822199e-01 6.227019708450832747e-01 -2.591759531807112271e+00 1.218003542201554712e+00 2.790102563485865605e-01 -9.241176421201500180e-01
2.000000000000000111e-01 -7.078467484305271951e-01 9.743812422891262592e-01 2.167971204542813723e-01 -3.746800207493459212e+00 8.184703691168525586e-01 3.701562870891633161e-01 1.613871496129092753e+00 6.812046624892643676e-01 -6.590206085151249261e-03
2.000000000000000111e-01 3.814142327607581429e-01 -2.467032552960242597e+00 -1.708891639399350515e+00 -1.307347288178074995e+00 -4.220661005083115924e+00 -2.436582654578452356e+00 -5.432097655884298160e-01 8.423833018329252020e-01 -1.494328948952003411e-01
2.000000000000000111e-01 2.208325114347322593e+00 -3.335855761691594701e+00 -4.617247202159642683e+00 4.148371590346160431e+00 -1.665232054014343932e+00 -8.110937978469955567e+00 -8.719875287864491120e-02 -3.539668042882763155e-01 5.144601091997094144e-01
2.000000000000000111e-01 -3.603629122193318102e-01 -2.074921043587361069e-01 -7.041687612824958364e-01 -7.506037332960112884e+00 -1.217285142114197027e+00 -7.740450937261333486e+00 2.974928503074385500e-01 1.880010619296722807e-01 1.301228515883393833e+00
2.000000000000000111e-01 4.197707949583494580e-01 4.390892937283488728e-01 8.140082277540094946e-01 -2.026096422028316191e+00 1.242210312342491685e+00 -2.117048368067666608e+00 9.941663314276857899e-02 -1.730516482962342284e+00 1.597179739205750515e+00
2.000000000000000111e-01 7.309112109613888908e-01 -1.786607399041874322e-01 -2.358889165049307401e-01 4.299096927529358680e+00 1.884995467742882624e-01 -2.677661500791074900e+00 3.571589793730877149e-01 5.647964869292386725e-01 -5.523340820094913006e-01
2.000000000000000111e-01 -1.723192244897678582e-01 5.364207740541949709e-01 -4.330455584036956851e-01 -3.579826310491692531e+00 -1.007363624693967896e+00 -5.845273514756414990e-01 -1.931708422166933392e-01 -5.189179524242124586e-01 -1.345254381590285479e-02
2.000000000000000111e-01 4.767506164191577800e-01 2.826728611486409304e-01 -3.606039157601464984e-01 6.487400604692777906e-01 -9.415673589932928023e-01 -1.039852774459383955e+00 -9.242347930784594601e-01 7.576997478856134505e-02 -1.392233521600583779e-01
2.000000000000000111e-01 -2.514708280691162923e+00 -1.154160210120914298e+00 -2.707476011662100390e+00 -3.476148656712971796e+00 -1.502646253639623897e+00 -2.290938183523700822e+00 5.957694771162939107e-01 6.344032431227376589e-01 1.694406892158661637e-01
2.000000000000000111e-01 -2.676164129433594718e-01 -4.037493329506922080e-01 1.191737798740094778e+00 -2.464476363357076760e+00 2.641469498237597469e-01 8.321458445295020212e+00 -1.336421660492691510e+00 -7.612067198992983341e-01 -2.184442207875056940e-01
2.000000000000000111e-01 -3.946556974264030071e+00 2.170343352298986783e+00 1.063461341097584389e+00 -1.550581768459108467e+01 8.611855554715326377e+00 6.079055675913986878e-01 1.830918505940636765e+00 1.181604583309558532e+00 -1.100132766297575060e+00
2.000000000000000111e-01 3.914779831413190969e+00 -6.620478469065076421e-01 -5.007950732520395354e-01 1.181231866170246647e+01 -7.924177719033044243e-01 -1.411671166389603327e+00 4.857270106093193318e-01 7.824859205214137470e-01 6.107351836588704730e-01
2.000000000000000111e-01 2.611282966721419463e+00 8.157198127337561555e-01 -1.308330138339855120e+00 3.488679704874752652e+00 2.661206486812121241e+00 -1.242662870524587682e+00 -4.083798253849345583e-01 9.460632332611424999e-01 1.022129414245795065e+00
2.000000000000000111e-01 -4.430936067231235675e+00 -1.264703795346261872e+00 -3.695237781614979511e+00 -8.184912203488105220e+00 -1.136957645448059218e+00 -6.487220324382040992e+00 -2.107969015098144078e-02 4.127555384102606084e-02 1.096106413350836695e+00
2.000000000000000111e-01 -2.167470127091776000e+00 -1.447906084456650699e+00 -1.698548987725612802e+00 -3.109905113700264789e-01 -2.334819713669593622e+00 -1.686321921814714075e+00 1.425218080926183295e-01 -2.681533460908795963e-01 1.418374357297791155e+00
2.000000000000000111e-01 9.994369829444794462e+00 -2.054040415329364322e+00 -6.442201986626515442e+00 1.733135928045518881e+01 -1.586709959976815298e+00 -9.119887272885208063e+00 -5.235611869307986721e-01 1.637598205090995407e-02 1.805484899473831950e+00
2.000000000000000111e-01 -3.390786585526791436e-02 -3.364648478673712417e-01 -8.186822488913215734e-01 4.573292101774667273e+00 -3.750420130780740102e+00 9.264951177571616014e+00 -3.163202295495595173e-01 9.522321988995448294e-02 -9.461629756402882840e-01
2.000000000000000111e-01 -6.179813723559282046e-01 -9.068653836014463065e-01 1.554901858730730391e+00 -3.140186269423037579e+00 -1.798050497199280284e-01 -4.332651018763005180e-01 4.174437476093765254e-01 -1.380181655339153934e+00 7.162574535250282315e-01
2.000000000000000111e-01 2.686191418345283743e+00 2.607830737808577215e+00 1.450357516354318976e+00 7.580015702259976784e+00 7.710310227295829044e+00 5.127434886432523875e+00 4.525296649238253477e-01 3.344140889732000188e-01 -8.236417003079894439e-01
2.000000000000000111e-01 -1.350563509251862193e+01 -2.070005389016115416e+00 -3.915651758343289934e+00 -2.386932690020620740e+01 -3.233533927108893202e+00 -7.953147705159332226e+00 9.444238424574774582e-01 -3.599042377706139217e-01 -1.177655621319875223e+00
2.000000000000000111e-01 -2.077315710991475495e+00 2.159028681746033851e-01 -1.193378056172427870e+00 -2.009566875978328948e+00 4.486476811368690365e-01 -1.039293873924509448e+00 -7.094150650241234368e-01 -3.432787591816053863e-01 1.729752256166292357e+00
2.000000000000000111e-01 2.882208593071452718e+00 1.064347337029777574e+00 -2.647689530357797860e+00 3.490584756619931284e+00 2.879971521614645535e+00 -6.819663869190372374e+00 -1.396083541317549193e+00 8.191167938667391901e-01 -3.516869100966322215e-01
2.000000000000000111e-01 8.110777905024750822e-01 -3.158671375464892628e-01 2.961032303437867164e+00 -3.111695627441606771e+00 8.015011402061625878e-01 1.726783491741056942e+00 2.262981583088385928e-01 -7.784210350138612844e-01 -1.020055248432633954e+00
2.000000000000000111e-01 -2.271287505190590750e+00 -3.635301792257294995e+00 -7.963587313406526036e-01 -4.864845281374567953e+00 -5.785897340958563007e+00 -1.083281465900861162e+00 -1.144496758295514005e-01 5.738673722206977246e-01 1.563535298382324745e-01
2.000000000000000111e-01 8.616687244252755340e-01 3.930042876092555010e-02 2.677227783199795486e+00 4.896468246600903518e-01 5.220487574639712136e+00 4.374295390304911990e+00 8.956669621207787868e-01 -1.940213859434855470e+00 -4.546162688754084025e-01
2.000000000000000111e-01 -1.951006649256604497e+00 4.815070454857461324e-01 -7.504702503678771564e+00 -4.454413669267459852e+00 1.144589075543826384e+00 -1.328074815157211397e+01 1.287839676788305132e+00 1.211425043583911343e-01 -4.177786500589580343e-01
2.000000000000000111e-01 1.342515473517454788e-02 5.160006464796371706e-01 -8.863562473810289166e-01 4.352036605653275991e+00 3.136968551349656131e+00 -4.679688077473152852e+00 1.645292458308862171e+00 6.000702075107278155e-01 -1.452035520500345012e+00
2.000000000000000111e-01 -3.400693497814117006e+00 -2.107098855581358787e+00 -7.298703114246830603e-01 -8.466318354066356022e+00 -3.833981558313769966e+00 -2.667522404809084424e+00 8.565027547425647647e-01 4.045933102233424949e-01 2.699203104838276412e-01
2.000000000000000111e-01 1.840609237411499954e+00 -7.728437770208049784e-01 2.997371403334086359e+00 -1.736301894363850185e+00 -2.088888342850132585e+00 5.851564560933275594e+00 1.079373184858595902e+00 1.168430214982944665e-01 2.078051804633141320e+00
2.000000000000000111e-01 -3.508726886202047091e-01 5.785274700340069243e-02 -8.654171458478475687e-01 1.856074538621937275e+00 -2.040979192490776750e+00 -5.855700680535208535e-02 -3.116156579120536452e-01 -9.656805898680476119e-01 1.049679311352054611e+00
2.000000000000000111e-01 1.370132234180896802e+01 3.292820889437332532e+00 8.768442920853999345e-01 2.384265489561748907e+01 6.222160054293813580e+00 5.244821846370411045e-01 -1.178040336042603387e-01 -1.359939040977154734e-01 2.226318798930941589e-01
2.000000000000000111e-01 1.409905897823949816e+00 -1.794358507543099002e+00 -1.373836142683467765e+00 3.922710535247125208e+00 -6.135038156345867577e+00 -9.364644159583180638e+00 6.605003871932092485e-01 2.834908369412093565e-01 8.112638664168756453e-01
2.000000000000000111e-01 -9.885297558152755570e+00 3.064758555731564638e+00 6.756644412394264165e+00 -1.397923396441806965e+01 6.259880365391030210e+00 1.145872761259991002e+01 -9.524643725018940854e-01 1.203399519389974637e-01 -7.508942591848019044e-01
2.000000000000000111e-01 1.069600042468395795e+00 7.379791933212245247e-01 9.063873372433172149e-01 3.985791673025825155e+00 2.024058052233254745e+00 -3.225693020322657478e-01 -8.714850382688268393e-01 -1.451128569074773278e-01 -4.430263072455225548e-01
2.000000000000000111e-01 1.567265017089401802e+00 1.269891349563463301e+01 -4.238722709287741530e+00 1.445364665152991002e+00 2.182995888449158528e+01 -5.798859905609205612e+00 6.653372657258510570e-01 -5.790713660383163264e-01 -9.607341965854655497e-01
2.000000000000000111e-01 -1.627401618216725299e-01 -5.466933314855662029e-01 -7.547119198173979360e-01 2.190916719197055773e-01 2.434994429819687056e+00 -6.572890708494737666e+00 -2.987053318640132127e-01 -6.339671642628654791e-01 -2.061552010098763432e+00
2.000000000000000111e-01 1.184640708918951679e+00 4.221039804454965072e+00 1.406663639745043382e+00 3.345974170959111760e+00 4.959850900498534720e+00 -1.141778416926385598e+00 -7.224952440073477700e-01 6.793649994325586805e-01 -6.342272416482459541e-01
2.000000000000000111e-01 -2.186894276615433241e-03 -1.912592245630448273e+00 -2.224815028418019036e+00 2.443835702647678965e-01 -2.559941980186425159e+00 -4.729904072438942286e+00 -7.648265045724579325e-01 -5.277428730811927204e-01 -7.285606645227563627e-01
2.000000000000000111e-01 -7.593477318363727191e-01 9.561815268769322529e-01 -7.095744958815244363e-01 1.421541631522845295e+00 8.929125193606886057e-01 -4.705762721925249359e+00 1.401336077286875259e+00 1.994418133751360456e+00 -2.493633451681860791e+00
2.000000000000000111e-01 -2.005571696642596269e+00 -4.185994853415649364e-01 -2.518112905445466065e+00 -4.464803494660952055e+00 7.700984119234663416e-02 -4.451944298299268965e+00 -1.686947643786270434e-01 -1.112949139721709502e-01 1.785866028079163836e+00
2.000000000000000111e-01 -6.559317365773063013e-01 -4.484709627228539164e-02 -2.193524121124724058e+00 -2.979690738532298155e+00 -2.198386150176129039e+00 7.356224775032716989e-01 1.095186438311185118e+00 -2.027299091432454570e-01 -1.658432873299482635e+00
2.000000000000000111e-01 4.265459564896017519e-01 5.743357020981659788e-01 1.020934125992450092e-01 2.547625453963325626e+00 -2.906485226179293946e+00 5.724712873253469780e+00 -6.831357477726296423e-01 -3.446388259010521038e-01 -2.665593068137567245e-01
2.000000000000000111e-01 -1.496071528971428144e+00 -3.256705315726109884e+00 -2.357743657841418816e+00 -5.047397225677972443e+00 -2.640871497306703120e+00 -1.443084198686021669e+00 -1.592421874085047095e+00 1.156823731462514049e+00 1.069107359911631194e+00
2.000000000000000111e-01 -1.635336890727471904e+00 5.962458365398741744e-01 -5.531676569186775305e-01 -6.669777222032719166e+00 4.393222490077159925e+00 -2.692867585233912564e+00 -1.223310586007041900e+00 9.809448759719592292e-01 3.204576417922734843e-01
2.000000000000000111e-01 3.364833209953400905e-02 -3.133959966737918990e+00 -1.574388391691194711e+00 7.667222265883036902e-01 -6.469975242990979147e+00 -3.576556293450753099e+00 -2.235644314850002146e-01 -1.068210350058179214e+00 6.135394559233900424e-02
2.000000000000000111e-01 3.216170710023654067e+00 5.697225347353396252e-01 -7.886590529806227767e-01 7.412030815207515388e+00 1.875584463521155820e+00 1.244650609857029577e+00 -1.979166230203300403e+00 1.097375253062042644e+00 -9.086383778499577124e-01
2.000000000000000111e-01 1.688179182574917947e+00 1.069326794596690222e+00 -3.028440329180597662e-02 3.158079989619227312e+00 3.864748447060089909e+00 3.539675902761215021e+00 -1.411618830972717564e+00 5.578939698536565794e-01 -4.266426693507894274e-01
2.000000000000000111e-01 -4.143227018162750075e-01 -4.099454872126667149e-01 1.461168967325524370e+00 2.623849171507526723e+00 -1.705478781700697555e+00 2.333879201298120432e+00 5.830791308948009011e-01 -1.849702544535568594e-01 1.763019130122224221e+00
2.000000000000000111e-01 5.228507697514526598e+00 1.719118248493025192e+00 -3.968946923978383889e+00 2.683710710931364574e+01 5.946097352876962283e+00 -2.024951389089498477e+01 -1.720659399611626839e+00 9.798266126681859367e-01 -5.723369920806001820e-01
2.000000000000000111e-01 8.302290565348721119e-01 1.945229751010489339e-01 2.946555251717338564e+00 1.456394133974857397e+00 3.340479226610409302e+00 1.342161601630712076e+00 -2.242880105773636057e+00 -1.565798704276393893e+00 -1.214715150843223290e-01
2.000000000000000111e-01 1.862815372656157376e+00 -1.586542683475910209e+00 2.523223383345641668e+00 2.466978976337570906e+00 -6.759469982308654590e-01 2.048859466680730268e+00 4.655558135037913756e-03 -1.120947515242226161e-01 9.164997665003927763e-01
2.000000000000000111e-01 -1.888328602117429922e+00 4.833354400938790624e-03 -2.240304141716169983e+00 -3.729891891389375269e-01 -2.976353668915954653e+00 -4.253002627304839578e+00 1.699226508802586522e-01 -6.679689897872609361e-02 -1.017354596041230852e-01
2.000000000000000111e-01 3.885307681290232740e+00 1.042007466744056199e+00 2.047893894322903474e+00 1.055059004188498584e+01 2.208446727755628114e+00 4.897759358604701241e+00 9.575996716961209243e-01 -3.800212820832296057e-01 -5.476042479688690845e-01
2.000000000000000111e-01 -1.967448592003428365e+00 -4.361164014516560883e+00 2.230510139456856056e-01 -5.035239416080984576e+00 -1.101128460788949681e+01 -1.540057488227139504e-01 1.733335360229991018e+00 1.607423515250675505e+00 -1.463360001873950322e+00
2.000000000000000111e-01 -5.547225981114772830e-01 -3.550975909800945018e+00 -3.967423833574193814e+00 -2.528941920414883970e+00 -7.573834756870500229e+00 -3.901489098827366497e+00 -1.481259929826439725e+00 -5.562455566616666403e-01 6.364195616805071731e-01
2.000000000000000111e-01 2.314180173854445965e-01 -2.963198436017233997e-02 -7.824494635321029845e-01 -2.535020659047868552e-01 2.818513368919223439e+00 1.437459071392493293e+00 -1.069776904912365989e+00 9.217015482178823049e-01 5.922274772907178964e-01
2.000000000000000111e-01 2.307263931681104857e-02 2.369092159172809797e+00 3.244441026457255628e+00 -5.151444412775674220e-01 4.189731665522189452e+00 6.064227357820080044e+00 7.915148001624806584e-01 -1.015363135660433791e+00 -8.048018562985213009e-01
2.000000000000000111e-01 4.674116049505129489e+00 1.495614528101718799e+00 -4.304846891929535957e+00 1.637058261027985040e+01 5.291718700599679970e+00 -1.710332548771568995e+01 1.082903688098803552e-01 -5.069023257663189952e-01 9.891051370425618661e-01
2.000000000000000111e-01 1.260340733803306579e+00 -1.325746540325289713e+00 -4.380841850927880698e-01 9.247554825628615305e+00 -5.276249336984703220e+00 -2.283972557058998820e+00 9.536227737899083401e-01 -1.137963513142421279e+00 -4.347659099736778110e-01
2.000000000000000111e-01 1.211971039319422516e+00 5.098514742054682802e-01 2.767720280580607262e-01 -2.536096486211294465e-01 -1.807617301013371813e+00 -5.726062281315388303e-01 -6.732880253705347817e-01 2.568116709601713232e-01 -1.128152052396058647e-01
2.000000000000000111e-01 -8.570558134678259998e-01 1.336363168436849602e-01 -3.121317130395862560e-01 -1.763366531258630854e+00 -6.756798182020611332e-01 -5.193111407840298455e+00 2.992763546852804102e-01 -5.328473851187549570e-01 -1.297512116512353542e+00
2.000000000000000111e-01 1.000577408934268386e-01 1.508706102376169422e-01 1.229518563647727714e+00 5.000344878114962865e-01 3.727845693726357990e+00 1.000353730761329452e+01 5.847261847852484040e-01 -9.341694633415285054e-01 1.877333420170706590e+00
2.000000000000000111e-01 1.100278339432685604e+00 -6.241770933315267111e-01 2.269785316861264057e+00 -3.797590333834259257e-01 1.506356081311154282e+00 4.112972247200587184e+00 4.795365590435126668e-01 6.818718284222321513e-01 -5.250361889456554021e-01
2.000000000000000111e-01 -3.353273319627221860e-01 2.622966698024802035e-03 2.005934744672605852e-01 6.424033174329649043e+00 -3.308533660393399245e+00 -9.413049653422798091e-01 9.645143198464114498e-01 4.682952647395684509e-01 3.107797749933667864e-01
2.000000000000000111e-01 -1.277740921760809334e+00 1.002528302141330929e+00 1.068492868824519326e-01 1.860215262180378248e+00 -2.886867388925854705e+00 5.272221252747890663e-01 -7.817659407701461616e-01 1.594335185503471530e+00 1.721765692341389320e+00
2.000000000000000111e-01 -4.188907494247768870e-01 -5.350997428440458226e-01 -1.170961755356999395e-02 -9.226176252774841657e+00 -3.760039317531520542e+00 -2.344302316920017670e+00 -1.439414282393020494e+00 1.777630996610942260e+00 -3.724604661493456925e-01
2.000000000000000111e-01 1.441938661250115494e+00 1.360033490424625180e+00 1.954577985524742934e+00 9.182133276806411226e-01 3.179690147259516930e+00 8.205529608814376985e+00 -1.938215621452891391e+00 -6.327112457936556744e-02 1.103146849808664287e+00
2.000000000000000111e-01 -1.190410236563629764e+00 -2.230471766887453633e+00 2.779959072464945002e+00 -1.020088470747510412e+00 -3.895951488258953876e+00 -1.496601028769597441e+00 -6.640342753126907693e-01 -4.956786245842724203e-01 1.591482884198499592e+00
2.000000000000000111e-01 2.718992316246388041e-01 -2.525557995210057527e+00 4.243005758070674815e+00 -7.869120682250126952e-01 -3.368179036340116728e+00 8.740060077003139583e+00 2.746750731775911558e-01 -4.907863013043615164e-01 -7.109935330655287045e-01
2.000000000000000111e-01 1.390863005728147250e+00 -8.645789111107939906e-01 2.715973463253234410e+00 -2.113964990144436840e-01 -5.707355607593748381e+00 1.686258783453707366e+01 1.176877925213579978e-01 1.227415732175720919e-01 -8.556183829225534332e-01
2.000000000000000111e-01 3.656979601621974107e-01 -8.064817606594997246e-01 -2.205205292353837443e+00 -5.671365768756910786e-01 1.097648777936242048e+00 -2.362755044242207170e+00 1.299762502845322132e+00 -1.351280231070889626e-01 1.318074112029440803e+00
2.000000000000000111e-01 4.591572226329875828e-01 -2.974282401571140877e+00 3.326956757761034833e-02 -4.713719265358652932e-01 -9.330632934521243982e+00 1.759183133590767723e+00 -7.681547079383016507e-01 3.254067364212411273e-01 4.054419149060385641e-02
2.000000000000000111e-01 -5.750254787134215784e-01 1.502369109823352478e+00 1.904060017237764746e-01 1.150081276592446050e-01 5.142679624999772159e+00 1.175330594340399548e+00 -1.180614442082631235e-02 -1.495239641433372180e+00 4.810501795975972161e-01
2.000000000000000111e-01 -5.253447832184335864e-01 -3.777837705427606885e-01 -1.064771770896218106e+00 -1.068853652299427637e+00 2.570980311466013024e+00 4.304577361995720608e+00 2.076422368118658213e+00 -8.757048250047075877e-01 -6.108924061946308104e-01
2.000000000000000111e-01 3.418010735416709078e+00 -2.540367309109304195e+00 4.057004510240071582e+00 5.523831887278766395e+00 -3.405031516444747108e+00 9.350227523526136508e+00 -8.641747394930455739e-01 8.021400794108747290e-01 -3.456058189353753418e-01
2.000000000000000111e-01 2.630591861793256658e+00 -2.472162881175241633e+00 2.761483002252978380e+00 6.379643273021864402e+00 -2.473879405979108270e+00 3.769529874524498059e+00 3.204707377370521471e-01 3.685896668600501247e-01 -1.308636580605316846e+00
2.000000000000000111e-01 3.099290859796692832e-01 8.822271432124279000e-01 -5.023279020782706716e+00 -3.478906838750615460e+00 1.871072914611661142e+00 -1.948127231110632351e+01 8.395407107930650259e-01 -1.097577593934054407e+00 -2.811400118188451258e-01
