# Total Kinetic Energy: 115682.66140759837 J
# Total Potential Energy: -495.3313726922147 J
# Total Energy: 115187.33003490615 J
# mass x y z vx vy vz ax ay az
2.000000000000000111e-01 3.774394458082655501e-01 -6.223956909141414862e-01 1.616080134120549516e+00 2.055462387710702110e+00 -2.655648360369543326e+00 4.508384587223986273e+00 -8.966043962736165440e-01 6.963139999641968503e-01 -4.318718804335897610e-01
2.000000000000000111e-01 6.448349031892691707e-01 3.572361392953536274e+00 1.157356139900707515e+00 1.035007149014496308e+00 5.297254887204106311e+00 2.800566724874899993e+00 -8.638420432590800946e-01 7.477608111009810266e-01 -8.297878829518955390e-01
2.000000000000000111e-01 -6.849221468419554038e-01 8.128909583691078522e-01 4.144691299582602184e+00 -7.883847864097044411e-01 1.036349224177743000e+00 8.455601795733549864e+00 9.641895495286434414e-01 -7.350472763951455546e-01 1.373103499606344924e+00
2.000000000000000111e-01 1.104186257605129340e+00 1.940081359919185178e-01 3.137866376808090330e+00 5.254727707638181755e+00 3.624022616071496561e+00 3.001937739995150345e+00 -5.460842563394595617e-01 -1.562379614909943371e+00 1.380396280783603880e+00
2.000000000000000111e-01 5.703112715340644678e-01 8.186578551523778779e-01 2.989770292185368605e-01 -6.386600894896388159e-02 -2.881760420722164096e+00 2.896456341512767096e+00 8.297013594807493009e-01 2.265106253250432911e+00 9.937754100366300372e-03
2.000000000000000111e-01 -6.846801311702951587e+00 -1.607929530417444042e+01 4.609908812923972476e+00 -1.077835985356999871e+01 -2.216206544154066194e+01 7.527672607251076009e+00 5.503421260199654018e-03 -6.324108284545006953e-01 -1.983938834140225038e-01
2.000000000000000111e-01 -1.107755975295352968e+00 -8.670311973436261033e-01 -1.181536837852536159e+00 1.769321038362206000e+00 2.982388319102203145e+00 -7.593702412156537462e-02 1.185290918075305733e+00 1.180817650969794297e+00 4.342061600991873882e-01
2.000000000000000111e-01 1.566841417435729023e+00 2.371261422680126962e+00 2.841323498387331448e+00 7.215973407068677625e-01 3.939926572182798736e+00 4.207884789893473254e+00 6.301270386930696299e-01 -1.153803380428851000e+00 -5.839674396223903247e-02
2.000000000000000111e-01 1.887298603484022674e+00 -1.012691079152015838e+00 4.436725132331708288e+00 -1.033743316982640159e-01 3.554848973938682932e-01 6.404586331544900979e+00 4.819874889720659472e-01 6.233897045599963160e-01 7.806367264006173201e-01
2.000000000000000111e-01 -2.145356034267254852e+00 -3.763948237626905335e+00 -4.744037179535891546e+00 -3.290524499778431977e+00 -4.916428539633120209e+00 -6.832282580335171218e+00 -5.073469463042808991e-01 -1.432177634536540234e+00 -5.631686098712457289e-01
2.000000000000000111e-01 -3.278996246637808643e-01 -2.092039809046616627e-01 -2.568049858836520372e+00 -2.893175032755487486e+00 1.700364242448750396e+00 -1.214697708805478060e-01 1.112131061580115432e+00 -1.326002105085030414e-01 1.219961580377953547e+00
2.000000000000000111e-01 -5.463593948306540327e+00 -4.741155965913926851e-01 4.886125363843131453e+00 -2.270560291621413995e+01 -4.488992189445446535e+00 1.982241003289543713e+01 2.699041547263745788e-01 1.989345446514553695e+00 -2.737681246386168277e-01
2.000000000000000111e-01 -2.405548570424897115e+00 2.091031473812281938e+00 2.169159822674147531e+00 -1.226155199721391753e+00 1.459039962390783707e+00 4.703856654394448888e+00 -2.937911826042545194e+00 1.305695967249574041e+00 3.492309820269403620e-01
2.000000000000000111e-01 3.084389306580387569e+00 -6.870973217083178319e-01 -3.051766704840883082e-01 8.610954564197703220e+00 -1.180750803084965384e+00 -6.521774736840687536e-01 -7.536403006720584496e-01 -1.568655641053418592e-01 -1.413495907973157106e-01
2.000000000000000111e-01 1.716714992296032971e+00 -2.080487056727444273e+00 -1.729213069425184379e+00 3.619690863810974157e+00 -1.146760054058768574e+00 -3.265410769298644933e+00 1.119353522796681794e-01 2.620936284584423070e+00 4.785062303361312108e-01
2.000000000000000111e-01 8.470850739419216735e-01 7.793104696830586597e+00 -9.664521992729989464e+00 1.143096237346639565e+00 1.364308900256139978e+01 -1.647916137870698350e+01 2.322625098397875565e+00 9.424909421025224887e-01 3.856692653494809275e-01
2.000000000000000111e-01 -4.672237359682644531e+00 -4.264064319823407168e+00 5.222009279981098651e+00 -1.129949317296959777e+01 -1.025843446644021917e+01 1.091919223677827944e+01 -7.799893016850598104e-02 -3.623660123757801999e-01 9.463559795580524237e-02
2.000000000000000111e-01 -4.267445388603777201e-01 -3.977937502685315319e-01 -1.636612379096177516e+00 -2.459277374745492573e+00 -2.614805038985029029e+00 3.059153298344776672e+00 -2.822203611955039215e-01 -3.743734202435109598e-02 6.932200910895870427e-01
2.000000000000000111e-01 -1.516192008969576843e+00 -1.703922611916277308e-01 9.891870270773516216e-01 -1.396157183783606648e+00 2.753421868698247010e+00 1.780465550440640143e+00 1.092051761507943697e+00 -1.776818162249802213e-01 -1.957260997796935964e+00
2.000000000000000111e-01 -2.637952262215247590e+00 1.297531733003581600e+00 1.966746676760564805e+00 -4.638368302485961436e+00 4.176626620218796937e+00 3.660115839057913600e+00 -1.664407931597272627e-01 -9.650068241224063481e-01 3.546644428898021451e-01
2.000000000000000111e-01 -1.564005299879112298e+00 -2.233935765688527808e-01 9.213354617739858421e-01 -4.821670972215850171e+00 -3.359675432509148241e+00 3.907122752124803089e+00 1.614489561108785332e-01 -5.663598480014984116e-01 -1.317715235282914538e-02
2.000000000000000111e-01 -3.137558784008611656e+00 5.216230177574193050e+00 7.990835110559522114e+00 -5.418857610976217209e+00 7.811975045558829933e+00 1.244924760716670598e+01 6.295661757179298323e-01 -1.537997823929941443e+00 3.874429109039332908e-01
2.000000000000000111e-01 2.058034975451556448e-01 -2.450156401241024573e-01 -5.163665466902749301e-01 -3.087492630823084894e-01 1.452695823436083389e+00 -3.143581777269356614e+00 1.218003542201554712e+00 2.790102563485865605e-01 -9.241176421201500180e-01
2.000000000000000111e-01 -1.080550421675892769e+00 9.696986899982762420e-01 2.063069115796657416e-01 -3.612438032026935364e+00 -1.448277474611332938e+00 -6.482087913415124358e-01 1.613871496129092753e+00 6.812046624892643676e-01 -6.590206085151249261e-03
2.000000000000000111e-01 2.398535106256681482e-01 -2.852525313535299034e+00 -1.936795399381640026e+00 -1.489504966829543697e+00 -3.540279891053261796e+00 -2.156836793628429394e+00 -5.432097655884298160e-01 8.423833018329252020e-01 -1.494328948952003411e-01
2.000000000000000111e-01 2.613587259173755228e+00 -3.491900526958460649e+00 -5.412667996981665119e+00 3.965870281161157251e+00 -1.469133231636049919e+00 -7.810076149160896541e+00 -8.719875287864491120e-02 -3.539668042882763155e-01 5.144601091997094144e-01
2.000000000000000111e-01 -8.823570960232950400e-01 -4.699896164628379336e-01 -1.373074552689310002e+00 -3.802190006515307807e+00 -2.791909050225485522e+00 -5.523914831981582729e+00 2.974928503074385500e-01 1.880010619296722807e-01 1.301228515883393833e+00
2.000000000000000111e-01 2.231968878139014845e-01 5.231322000460597588e-01 5.251980440190445742e-01 -1.552871520423379614e+00 3.645223955621523793e-01 -3.661335570273234197e+00 9.941663314276857899e-02 -1.730516482962342284e+00 1.597179739205750515e+00
2.000000000000000111e-01 1.035087396125444315e+00 -1.145666257695612811e-01 -4.939549954152840927e-01 1.853514993239947284e+00 9.805112646903162421e-01 -2.325780106080765908e+00 3.571589793730877149e-01 5.647964869292386725e-01 -5.523340820094913006e-01
2.000000000000000111e-01 -5.053433228982273651e-01 3.354786962063344702e-01 -5.054477487943882519e-01 -3.104363867003921751e+00 -3.079134138775613039e+00 -1.030032691407966272e+00 -1.931708422166933392e-01 -5.189179524242124586e-01 -1.345254381590285479e-02
2.000000000000000111e-01 4.428980983814497785e-01 1.213006285850974919e-01 -4.554987437463612343e-01 -1.516551461881173957e+00 -2.263714602826259359e+00 -9.522427959130287389e-01 -9.242347930784594601e-01 7.576997478856134505e-02 -1.392233521600583779e-01
2.000000000000000111e-01 -2.823939187424272745e+00 -1.286254322396615413e+00 -2.902524921172553007e+00 -2.726515828502174443e+00 -1.142875935623356431e+00 -1.646771024081630452e+00 5.957694771162939107e-01 6.344032431227376589e-01 1.694406892158661637e-01
2.000000000000000111e-01 -3.068098921238851529e-01 -6.028561687767307609e-01 2.019834411114072914e+00 1.144854790967389846e+00 -2.751183281702989536e+00 6.780905698233439693e+00 -1.336421660492691510e+00 -7.612067198992983341e-01 -2.184442207875056940e-01
2.000000000000000111e-01 -5.474300035667224229e+00 3.017964437243110254e+00 1.120815358364095404e+00 -1.509282581046599248e+01 8.364995085781064432e+00 5.470984081711048885e-01 1.830918505940636765e+00 1.181604583309558532e+00 -1.100132766297575060e+00
2.000000000000000111e-01 5.060873476075158806e+00 -7.327179719203232855e-01 -6.381018001379662463e-01 1.115558360908625524e+01 -6.383931831227465103e-01 -1.335579715253343069e+00 4.857270106093193318e-01 7.824859205214137470e-01 6.107351836588704730e-01
2.000000000000000111e-01 2.931713702438741631e+00 1.062772754359330163e+00 -1.407611326225322701e+00 2.936438977993894195e+00 2.296388999126345976e+00 -7.756179563734225679e-01 -4.083798253849345583e-01 9.460632332611424999e-01 1.022129414245795065e+00
2.000000000000000111e-01 -5.230101924748797870e+00 -1.375940279956360035e+00 -4.330309432288019345e+00 -7.820070341789598700e+00 -1.091903787174123730e+00 -6.228649877203754848e+00 -2.107969015098144078e-02 4.127555384102606084e-02 1.096106413350836695e+00
2.000000000000000111e-01 -2.160850309065672992e+00 -1.650877362674492588e+00 -1.854418693235930782e+00 4.081161227223411569e-01 -1.729621686506054967e+00 -1.439535354055009320e+00 1.425218080926183295e-01 -2.681533460908795963e-01 1.418374357297791155e+00
2.000000000000000111e-01 1.172250124735718657e+01 -2.211567155767327097e+00 -7.351075763960580822e+00 1.723574053626815328e+01 -1.564586939432722534e+00 -9.060761738130256759e+00 -5.235611869307986721e-01 1.637598205090995407e-02 1.805484899473831950e+00
2.000000000000000111e-01 3.525517692591544350e-01 -5.632292611177234232e-01 1.160539177740311373e-01 3.488985609762579543e+00 -2.206217170271521089e-01 9.079371971406606789e+00 -3.163202295495595173e-01 9.522321988995448294e-02 -9.461629756402882840e-01
2.000000000000000111e-01 -8.745173692272252275e-01 -8.452637940624275759e-01 1.465096486981607882e+00 -2.037753369683314997e+00 1.260266272939160048e+00 -1.222645472534597655e+00 4.174437476093765254e-01 -1.380181655339153934e+00 7.162574535250282315e-01
2.000000000000000111e-01 3.419689686590782873e+00 3.353609315172830563e+00 1.955917025848182167e+00 7.122272960527420871e+00 7.241561555822467078e+00 4.989740305639465134e+00 4.525296649238253477e-01 3.344140889732000188e-01 -8.236417003079894439e-01
2.000000000000000111e-01 -1.588856738279986835e+01 -2.392851194342676013e+00 -4.709832722457082177e+00 -2.379347372295309526e+01 -3.223934062106339926e+00 -7.931511518732837551e+00 9.444238424574774582e-01 -3.599042377706139217e-01 -1.177655621319875223e+00
2.000000000000000111e-01 -2.210030417802594904e+00 2.496363382742876613e-01 -1.272851936028510655e+00 -6.903776031506227984e-01 2.412871331549120979e-01 -5.644320209150781587e-01 -7.094150650241234368e-01 -3.432787591816053863e-01 1.729752256166292357e+00
2.000000000000000111e-01 3.211259887402304614e+00 1.340554790092737258e+00 -3.305480482500120942e+00 3.114429588302088714e+00 2.656116585609002989e+00 -6.362886949617442944e+00 -1.396083541317549193e+00 8.191167938667391901e-01 -3.516869100966322215e-01
2.000000000000000111e-01 5.270599845623599178e-01 -1.246234653423338029e-01 3.041199989352679101e+00 -2.301955539464670242e+00 2.724373371261635590e+00 1.651405780887208463e-01 2.262981583088385928e-01 -7.784210350138612844e-01 -1.020055248432633954e+00
2.000000000000000111e-01 -2.739706924356605899e+00 -4.188830483772167490e+00 -9.027123024478369562e-01 -4.521502869120810786e+00 -5.309805382955330444e+00 -1.051268536536435816e+00 -1.144496758295514005e-01 5.738673722206977246e-01 1.563535298382324745e-01
2.000000000000000111e-01 1.081255737627118352e+00 4.282201061844194689e-01 3.006583568235992487e+00 3.305328469484167808e+00 1.401481671570969922e+00 9.347155181584477779e-01 8.956669621207787868e-01 -1.940213859434855470e+00 -4.546162688754084025e-01
2.000000000000000111e-01 -2.392698176740435834e+00 5.941868329498378731e-01 -8.819835303610215504e+00 -4.381739740305000019e+00 1.111298122629395646e+00 -1.303553481605628583e+01 1.287839676788305132e+00 1.211425043583911343e-01 -4.177786500589580343e-01
2.000000000000000111e-01 4.046238070883896865e-01 7.258708770604848093e-01 -1.257373625511868820e+00 3.455804362628178250e+00 1.264039483647922291e+00 -2.916088301770646485e+00 1.645292458308862171e+00 6.000702075107278155e-01 -1.452035520500345012e+00
2.000000000000000111e-01 -4.215106274454240243e+00 -2.475765506116609505e+00 -9.972138054193089296e-01 -7.858143484117928956e+00 -3.560141651479828973e+00 -2.674401299562430889e+00 8.565027547425647647e-01 4.045933102233424949e-01 2.699203104838276412e-01
2.000000000000000111e-01 1.600681206858937999e+00 -9.857148347988559101e-01 3.555118913618019683e+00 -2.816503221009305058e+00 -2.087440791226647274e+00 5.408345277951311481e+00 1.079373184858595902e+00 1.168430214982944665e-01 2.078051804633141320e+00
2.000000000000000111e-01 -1.769946393129696594e-01 -2.449128926146229568e-01 -8.090966655698155208e-01 1.553302612490811363e+00 -3.016246417906339516e+00 8.470334993464282425e-01 -3.116156579120536452e-01 -9.656805898680476119e-01 1.049679311352054611e+00
2.000000000000000111e-01 1.608145118152562958e+01 3.913968432435197542e+00 9.289452163513688410e-01 2.376406041208748832e+01 6.201833236771239655e+00 5.178925276689136936e-01 -1.178040336042603387e-01 -1.359939040977154734e-01 2.226318798930941589e-01
2.000000000000000111e-01 1.613036700473698959e+00 -2.527265431297341269e+00 -2.138199492255057788e+00 1.397240994670248204e+00 -6.984402885596916022e+00 -6.500660868606601639e+00 6.605003871932092485e-01 2.834908369412093565e-01 8.112638664168756453e-01
2.000000000000000111e-01 -1.127878108828169346e+01 3.689266831240306743e+00 7.899594269004793112e+00 -1.389441196225125452e+01 6.231301543994650416e+00 1.140280471634113368e+01 -9.524643725018940854e-01 1.203399519389974637e-01 -7.508942591848019044e-01
2.000000000000000111e-01 1.408293893259574547e+00 8.971640145935106947e-01 8.254304672556134204e-01 2.824464742807219597e+00 1.199073066263168119e+00 -1.217217760779002234e+00 -8.714850382688268393e-01 -1.451128569074773278e-01 -4.430263072455225548e-01
2.000000000000000111e-01 1.711377704387379683e+00 1.487764385340490847e+01 -4.817360044993758805e+00 1.437438941082451294e+00 2.174889518490549989e+01 -5.775259335079719669e+00 6.653372657258510570e-01 -5.790713660383163264e-01 -9.607341965854655497e-01
2.000000000000000111e-01 -1.700973749315861094e-01 -1.382979966309843267e-01 -1.309970469781541302e+00 -6.317422264219803019e-01 4.755084328010476646e+00 -4.450564357210210709e+00 -2.987053318640132127e-01 -6.339671642628654791e-01 -2.061552010098763432e+00
2.000000000000000111e-01 1.512037778655331843e+00 4.684676082311063361e+00 1.287262968514454542e+00 3.200303266057602514e+00 4.335847821456578544e+00 -1.231468320151872131e+00 -7.224952440073477700e-01 6.793649994325586805e-01 -6.342272416482459541e-01
2.000000000000000111e-01 2.405706530922722963e-02 -2.140650258480477408e+00 -2.653293191719547917e+00 2.596143001444662368e-01 -2.034073721033409665e+00 -3.879426895881850523e+00 -7.648265045724579325e-01 -5.277428730811927204e-01 -7.285606645227563627e-01
2.000000000000000111e-01 -5.766454784209436024e-01 9.492456586961075526e-01 -1.125060690920584472e+00 2.139794621431271970e+00 -9.972865698086395003e-01 -3.625381860351036600e+00 1.401336077286875259e+00 1.994418133751360456e+00 -2.493633451681860791e+00
2.000000000000000111e-01 -2.403308054287192519e+00 -3.980172626567772265e-01 -2.902800788860820713e+00 -3.442942830275203647e+00 2.332999113871608021e-01 -3.291315893117378266e+00 -1.686947643786270434e-01 -1.112949139721709502e-01 1.785866028079163836e+00
2.000000000000000111e-01 -9.065525443066844158e-01 -2.846373051950213395e-01 -2.038732508422204326e+00 -2.031502883748928845e+00 -2.533701836726429679e+00 2.353264761572613661e+00 1.095186438311185118e+00 -2.027299091432454570e-01 -1.658432873299482635e+00
2.000000000000000111e-01 6.399950654827902818e-01 2.678042463509600069e-01 6.460312610907351649e-01 1.561399403465742797e+00 -2.977031264098517038e+00 5.022263652772966047e+00 -6.831357477726296423e-01 -3.446388259010521038e-01 -2.665593068137567245e-01
2.000000000000000111e-01 -1.986264298106513726e+00 -3.492367697269035620e+00 -2.486668409427516657e+00 -4.762477985624437693e+00 -2.098313777739539976e+00 -1.147898556526949720e+00 -1.592421874085047095e+00 1.156823731462514049e+00 1.069107359911631194e+00
2.000000000000000111e-01 -2.228706772851093643e+00 9.950397408608790961e-01 -8.111906094058031202e-01 -5.324826327833063644e+00 3.567110342146821989e+00 -2.508779017612005280e+00 -1.223310586007041900e+00 9.809448759719592292e-01 3.204576417922734843e-01
2.000000000000000111e-01 1.123612622622851970e-01 -3.726874204006772384e+00 -1.922763270093239552e+00 7.888937732735127328e-01 -5.441734698862990882e+00 -3.391862208062314643e+00 -2.235644314850002146e-01 -1.068210350058179214e+00 6.135394559233900424e-02
2.000000000000000111e-01 3.913218270044704461e+00 7.480060633440714923e-01 -6.600817820442276274e-01 6.588061612214229257e+00 1.690234532470352491e+00 1.327490436576309829e+00 -1.979166230203300403e+00 1.097375253062042644e+00 -9.086383778499577124e-01
2.000000000000000111e-01 1.943901967847298851e+00 1.408239658296932761e+00 3.331083103900532860e-01 2.029696346229961978e+00 2.952737805957943440e+00 3.701258866084991883e+00 -1.411618830972717564e+00 5.578939698536565794e-01 -4.266426693507894274e-01
2.000000000000000111e-01 -2.796616683288665750e-01 -3.450711601627083902e-01 1.609973881027628062e+00 3.770884146560774530e-01 1.581836998065030864e+00 2.105551617531953301e+00 5.830791308948009011e-01 -1.849702544535568594e-01 1.763019130122224221e+00
2.000000000000000111e-01 7.890972523762197710e+00 2.306423575099517009e+00 -5.989830982010539095e+00 2.648001885665354749e+01 5.828113701065841035e+00 -2.015862391812596499e+01 -1.720659399611626839e+00 9.798266126681859367e-01 -5.723369920806001820e-01
2.000000000000000111e-01 6.797023923265546053e-01 3.963629653034509981e-01 3.124336533050206199e+00 -2.998905108062901004e+00 1.703151321518812766e+00 3.672678480231656550e+00 -2.242880105773636057e+00 -1.565798704276393893e+00 -1.214715150843223290e-01
2.000000000000000111e-01 2.079103312333224096e+00 -1.615404732879914151e+00 2.722343673583818457e+00 1.881920202828982980e+00 2.638344786732273878e-02 1.932920909273295962e+00 4.655558135037913756e-03 -1.120947515242226161e-01 9.164997665003927763e-01
2.000000000000000111e-01 -1.905306631744165591e+00 -3.287911466758365320e-01 -2.640686770348343426e+00 -6.417799213000383030e-02 -3.572429220503765546e+00 -3.744606710343858946e+00 1.699226508802586522e-01 -6.679689897872609361e-02 -1.017354596041230852e-01
2.000000000000000111e-01 4.911822882459987660e+00 1.255630448221946693e+00 2.526582871993243717e+00 1.001913593201198438e+01 2.075177678240557544e+00 4.690522966724680387e+00 9.575996716961209243e-01 -3.800212820832296057e-01 -5.476042479688690845e-01
2.000000000000000111e-01 -2.461240858584734514e+00 -5.435466783659824053e+00 2.002654003878416300e-01 -4.851059395643659400e+00 -1.050692408797621979e+01 -2.875932140308576357e-01 1.733335360229991018e+00 1.607423515250675505e+00 -1.463360001873950322e+00
2.000000000000000111e-01 -8.107885291428649222e-01 -4.288162755146211147e+00 -4.336701864874164869e+00 -2.585833914301769454e+00 -7.183481027284409848e+00 -3.511274326037296944e+00 -1.481259929826439725e+00 -5.562455566616666403e-01 6.364195616805071731e-01
2.000000000000000111e-01 1.261996933057249470e-01 2.102332409464932605e-01 -5.548440093987422328e-01 -1.310163635219165235e+00 1.717648214607204293e+00 2.957353780443462643e+00 -1.069776904912365989e+00 9.217015482178823049e-01 5.922274772907178964e-01
2.000000000000000111e-01 -2.305790041743015564e-02 2.759844605794867789e+00 3.823071036877714768e+00 -4.073704941694585302e-01 3.649016303672000472e+00 5.534369267140895055e+00 7.915148001624806584e-01 -1.015363135660433791e+00 -8.048018562985213009e-01
2.000000000000000111e-01 6.311075629472123971e+00 2.023816585046493088e+00 -6.001171323450737560e+00 1.634655359856744994e+01 5.262663371601663975e+00 -1.687033076613739269e+01 1.082903688098803552e-01 -5.069023257663189952e-01 9.891051370425618661e-01
2.000000000000000111e-01 2.145280772181408668e+00 -1.816343389769126793e+00 -6.693806839956676358e-01 8.492167354344646313e+00 -4.601833309916556480e+00 -2.330770899089812165e+00 9.536227737899083401e-01 -1.137963513142421279e+00 -4.347659099736778110e-01
2.000000000000000111e-01 1.089774751403090436e+00 3.198849083601897347e-01 2.146293008257013080e-01 -2.209046183816741671e+00 -1.987696347127401397e+00 -6.462150061211319185e-01 -6.732880253705347817e-01 2.568116709601713232e-01 -1.128152052396058647e-01
2.000000000000000111e-01 -9.104012319458834046e-01 4.146728380576828604e-02 -8.415319912457374096e-01 9.529321819485039313e-01 -1.178156946918522685e+00 -5.217629815181973996e+00 2.992763546852804102e-01 -5.328473851187549570e-01 -1.297512116512353542e+00
2.000000000000000111e-01 1.488729317323501666e-01 4.777283933431242802e-01 2.168736345257033626e+00 5.462321925958628643e-01 2.887040061026698190e+00 8.970306321607573352e+00 5.847261847852484040e-01 -9.341694633415285054e-01 1.877333420170706590e+00
2.000000000000000111e-01 1.032258976436305042e+00 -4.362455152431961025e-01 2.687518953182578052e+00 -1.011447058726569592e+00 2.299856735567645583e+00 4.191126023087466734e+00 4.795365590435126668e-01 6.818718284222321513e-01 -5.250361889456554021e-01
2.000000000000000111e-01 3.294817813799392203e-01 -3.189527711109292341e-01 2.509720639277920537e-02 6.802535494354986056e+00 -3.287378116616251678e+00 -2.629474280116997242e+00 9.645143198464114498e-01 4.682952647395684509e-01 3.107797749933667864e-01
2.000000000000000111e-01 -9.804947754022139694e-01 6.883764693979603777e-01 1.538845857234592551e-01 3.899495840941696656e+00 -2.778922511720303579e+00 5.121990923637002036e-01 -7.817659407701461616e-01 1.594335185503471530e+00 1.721765692341389320e+00
2.000000000000000111e-01 -1.284506954809347956e+00 -8.250556024917343745e-01 -2.808900094472304154e-01 -8.095903305196637589e+00 -2.240585963959030646e+00 -2.963714012685279009e+00 -1.439414282393020494e+00 1.777630996610942260e+00 -3.724604661493456925e-01
2.000000000000000111e-01 1.507868425835624970e+00 1.658136833470645222e+00 2.757200456126468691e+00 4.294645485778552096e-01 2.813162320130645266e+00 7.850300745351805887e+00 -1.938215621452891391e+00 -6.327112457936556744e-02 1.103146849808664287e+00
2.000000000000000111e-01 -1.275698263257302401e+00 -2.593474312415903871e+00 2.607283453984060806e+00 -6.984326043269349915e-01 -3.371732553900144591e+00 -1.933615237514528351e+00 -6.640342753126907693e-01 -4.956786245842724203e-01 1.591482884198499592e+00
2.000000000000000111e-01 1.962081268917440502e-01 -2.843512449329715697e+00 5.091590246324965818e+00 -7.242622276350352273e-01 -3.009052825837930101e+00 8.257749170540050088e+00 2.746750731775911558e-01 -4.907863013043615164e-01 -7.109935330655287045e-01
2.000000000000000111e-01 1.384535551286137256e+00 -1.388839546290043581e+00 4.361799884233362512e+00 1.119625052991861935e-01 -4.845493139769356361e+00 1.603298524717243723e+01 1.176877925213579978e-01 1.227415732175720919e-01 -8.556183829225534332e-01
2.000000000000000111e-01 2.663759998954065567e-01 -6.686075165843254897e-01 -2.383866078241316799e+00 -1.405959262564190126e+00 1.620767217402515392e+00 -1.216041958061551131e+00 1.299762502845322132e+00 -1.351280231070889626e-01 1.318074112029440803e+00
2.000000000000000111e-01 4.057319071952250611e-01 -3.866320867353780333e+00 1.999442863883148236e-01 -5.863945697280705804e-01 -8.566380098523719511e+00 1.588960720955580497e+00 -7.681547079383016507e-01 3.254067364212411273e-01 4.054419149060385641e-02
2.000000000000000111e-01 -5.521143269607161619e-01 1.918797221998874480e+00 2.963340065277729196e-01 3.447633817250412847e-01 3.367597096268656998e+00 9.692379072991640365e-01 -1.180614442082631235e-02 -1.495239641433372180e+00 4.810501795975972161e-01
2.000000000000000111e-01 -6.185836375638369411e-01 1.261265584383849947e-01 -6.338123730432967395e-01 -7.294470832798415350e-01 5.926183677537568251e+00 3.880257291290558630e+00 2.076422368118658213e+00 -8.757048250047075877e-01 -6.108924061946308104e-01
2.000000000000000111e-01 3.953150298046368416e+00 -2.868535336536846447e+00 4.974180422896276710e+00 5.201428306829266823e+00 -3.173979470331746544e+00 9.013172221837226772e+00 -8.641747394930455739e-01 8.021400794108747290e-01 -3.456058189353753418e-01
2.000000000000000111e-01 3.245199430857564682e+00 -2.693951189510515931e+00 3.127503036828477967e+00 5.933613855728595787e+00 -2.002422662629809835e+00 3.562787584421853282e+00 3.204707377370521471e-01 3.685896668600501247e-01 -1.308636580605316846e+00
2.000000000000000111e-01 -3.961116059047672250e-02 1.062788244239506907e+00 -6.949998144395795663e+00 -3.506785800073878079e+00 1.754112082713477294e+00 -1.909252745536559814e+01 8.395407107930650259e-01 -1.097577593934054407e+00 -2.811400118188451258e-01
