# Total Kinetic Energy: 111580.2891527593 J
# Total Potential Energy: -243.5158515891709 J
# Total Energy: 111336.77330117013 J
# mass x y z vx vy vz ax ay az
2.000000000000000111e-01 1.296270726887911673e+00 -1.480993097036880535e+00 4.812263593245535098e+00 2.605194409489383633e-01 -5.764871110810081134e-03 2.128289922037484683e+00 -8.966043962736165440e-01 6.963139999641968503e-01 -4.318718804335897610e-01
2.000000000000000111e-01 1.867231303086010596e+00 7.525429228740025067e+00 4.212852973014125979e+00 8.713269132852307086e-01 1.924299706813502375e+00 2.303012893096457070e+00 -8.638420432590800946e-01 7.477608111009810266e-01 -8.297878829518955390e-01
2.000000000000000111e-01 -5.494276276955143423e-01 1.545825504867086808e+00 1.168029291230256739e+01 5.387401501727441255e-01 3.682811162072986977e-01 4.797557707951948025e+00 9.641895495286434414e-01 -7.350472763951455546e-01 1.373103499606344924e+00
2.000000000000000111e-01 1.815453591118838972e+00 1.870837515156540398e+00 3.478040358338357674e+00 -1.176342173062185914e+00 1.509860899152963176e+00 1.030778173502308936e+00 -5.460842563394595617e-01 -1.562379614909943371e+00 1.380396280783603880e+00
2.000000000000000111e-01 -1.769635043579853351e+00 -1.867358851928823560e+00 -1.161502821802634644e+00 2.714927050187912805e+00 -1.032245987945631382e+00 -1.288717030332772406e+00 8.297013594807493009e-01 2.265106253250432911e+00 9.937754100366300372e-03
2.000000000000000111e-01 -1.991617401310495339e+01 -4.292711461674625895e+01 1.373845428913751121e+01 -1.067860233286238092e+01 -2.192705394401354368e+01 7.459223220448921055e+00 5.503421260199654018e-03 -6.324108284545006953e-01 -1.983938834140225038e-01
2.000000000000000111e-01 1.087400199953743041e+00 -1.105836612368047145e-01 -3.616523173123082913e-01 -3.247654289548541851e+00 -1.798322117953679689e+00 2.586982362126763579e+00 1.185290918075305733e+00 1.180817650969794297e+00 4.342061600991873882e-01
2.000000000000000111e-01 1.212403514934524473e+00 3.890084723116705057e+00 6.710165401062829105e+00 -6.906036254431164867e-01 -4.220630436918290096e-01 2.255376456095826043e+00 6.301270386930696299e-01 -1.153803380428851000e+00 -5.839674396223903247e-02
2.000000000000000111e-01 4.976658701594118828e-01 2.264857815229912724e-02 9.122798697980055493e+00 -8.050086123981484709e-01 1.618891915280568972e+00 2.062854619896209662e+00 4.819874889720659472e-01 6.233897045599963160e-01 7.806367264006173201e-01
2.000000000000000111e-01 -5.489686231487448609e+00 -9.012826657759859472e+00 -1.171777543864530990e+01 -2.479287708898374021e+00 -3.986171419264408655e+00 -5.122099564161235463e+00 -5.073469463042808991e-01 -1.432177634536540234e+00 -5.631686098712457289e-01
2.000000000000000111e-01 5.544500018774156658e-01 3.842874379359849657e-01 -4.920536928290709100e-01 7.185024443034901953e-01 1.849659863496815326e+00 7.273756262566243302e-01 1.112131061580115432e+00 -1.326002105085030414e-01 1.219961580377953547e+00
2.000000000000000111e-01 -3.270528241848406026e+01 -5.906277881166948518e+00 2.869200620036128058e+01 -2.220883433857391509e+01 -4.433154128096186142e+00 1.941103626082676925e+01 2.699041547263745788e-01 1.989345446514553695e+00 -2.737681246386168277e-01
2.000000000000000111e-01 -2.444920759797824417e+00 2.000825166115281384e+00 6.017944047100451499e+00 1.141552180236198089e+00 -7.130204463807664483e-01 2.092711390987072040e+00 -2.937911826042545194e+00 1.305695967249574041e+00 3.492309820269403620e-01
2.000000000000000111e-01 1.129886383938727690e+01 -1.590840036105581889e+00 -9.080496561022444180e-01 5.817503492253021768e+00 -5.629553282326245078e-01 -3.880789863727184819e-01 -7.536403006720584496e-01 -1.568655641053418592e-01 -1.413495907973157106e-01
2.000000000000000111e-01 3.844790362779255677e+00 -2.225683397607734815e+00 -4.103960351862506073e+00 4.489079444131198193e-01 5.807325943373748967e-01 -8.305139236168509465e-01 1.119353522796681794e-01 2.620936284584423070e+00 4.785062303361312108e-01
2.000000000000000111e-01 2.226823860553436951e+00 2.419486070078981044e+01 -2.949539291706311417e+01 1.125283790914956006e+00 1.335077887231875593e+01 -1.614941910742875564e+01 2.322625098397875565e+00 9.424909421025224887e-01 3.856692653494809275e-01
2.000000000000000111e-01 -1.804460107916703748e+01 -1.639215540193354670e+01 1.812356406231726424e+01 -1.081635752676817575e+01 -9.806997759140786641e+00 1.043250109154666738e+01 -7.799893016850598104e-02 -3.623660123757801999e-01 9.463559795580524237e-02
2.000000000000000111e-01 1.044022106181852205e+00 4.703825659834787731e-01 -2.250948113480431445e+00 2.468077169622000522e+00 -2.668070317038593320e+00 7.919925633843277746e-03 -2.822203611955039215e-01 -3.743734202435109598e-02 6.932200910895870427e-01
2.000000000000000111e-01 2.924926684907961150e+00 4.182946977777596942e+00 6.775630021403440395e+00 7.256371253020916789e+00 6.332052949221274929e+00 6.803187192143085760e+00 1.092051761507943697e+00 -1.776818162249802213e-01 -1.957260997796935964e+00
2.000000000000000111e-01 -5.473567137792002768e+00 5.358991628758738912e+00 5.642913084373446075e+00 -1.217259795415427837e+00 2.587454426086465809e+00 2.598431734406288829e+00 -1.664407931597272627e-01 -9.650068241224063481e-01 3.546644428898021451e-01
2.000000000000000111e-01 -3.728689699780180611e+00 -4.146387102731943664e+00 -4.404903226841873298e+00 -1.496568462512266162e+00 -4.958819992779999630e+00 -9.100302315896300343e+00 1.614489561108785332e-01 -5.663598480014984116e-01 -1.317715235282914538e-02
2.000000000000000111e-01 -9.549367812243572118e+00 1.440439564209087564e+01 2.271354164411074805e+01 -5.173118269881187281e+00 7.392538981618554494e+00 1.187861447960129979e+01 6.295661757179298323e-01 -1.537997823929941443e+00 3.874429109039332908e-01
2.000000000000000111e-01 -2.283463126712738100e-01 2.929561454885933336e-01 -1.487306407156601340e+00 3.252669312213646080e+00 -2.823767719711947066e+00 -4.915182317238352971e-01 1.218003542201554712e+00 2.790102563485865605e-01 -9.241176421201500180e-01
2.000000000000000111e-01 1.718771732475038672e+00 -7.454782257413332669e-01 -1.290000803939284291e+00 9.486891142536345356e+00 -2.150061070791027887e-02 -5.687169928201254443e+00 1.613871496129092753e+00 6.812046624892643676e-01 -6.590206085151249261e-03
2.000000000000000111e-01 -1.584575576539358321e+00 -4.334968983705456580e+00 -3.663294652321046563e+00 -1.270360103343270097e+00 9.441520067159889784e-01 -4.880268972806103833e-01 -5.432097655884298160e-01 8.423833018329252020e-01 -1.494328948952003411e-01
2.000000000000000111e-01 6.854532833521871815e+00 -4.808919119973731782e+00 -1.387623328594115080e+01 3.210998114604458387e+00 -9.154854010424338107e-01 -6.444459886772077262e+00 -8.719875287864491120e-02 -3.539668042882763155e-01 5.144601091997094144e-01
2.000000000000000111e-01 -4.751836586265640872e-01 -4.053836034093661889e-01 7.932114522052219341e-01 1.389716310854040238e+00 -1.544109176428873909e-01 6.402550133244119479e+00 2.974928503074385500e-01 1.880010619296722807e-01 1.301228515883393833e+00
2.000000000000000111e-01 -1.276435653580969110e+00 1.697400893122973653e-01 -2.342296879343542138e+00 5.119173974150712514e-01 1.416095066646007261e+00 -5.943946196774619883e-01 9.941663314276857899e-02 -1.730516482962342284e+00 1.597179739205750515e+00
2.000000000000000111e-01 -2.060218226311747891e+00 -1.356581572336413410e+00 -1.022359787481333049e+00 -4.053239637493287750e-01 4.073671022090095128e+00 -2.081154174815198488e+00 3.571589793730877149e-01 5.647964869292386725e-01 -5.523340820094913006e-01
2.000000000000000111e-01 4.183665922456327735e-01 -3.343896736973132722e+00 1.512883387510389310e+00 2.857871671828496662e+00 -1.987909251569724312e+00 6.968318580624055514e-01 -1.931708422166933392e-01 -5.189179524242124586e-01 -1.345254381590285479e-02
2.000000000000000111e-01 -1.443910509798252528e+00 -9.447163354340014640e-01 1.226907151255487438e+00 -6.592531486527188456e+00 -1.714474440952771239e+00 6.986027869525383238e+00 -9.242347930784594601e-01 7.576997478856134505e-02 -1.392233521600583779e-01
2.000000000000000111e-01 -3.029340772117708802e+00 -1.107422027363315076e+00 -3.042115659406233519e+00 7.593021192054318913e-01 -3.568881260645111464e-01 5.394875446573034194e-01 5.957694771162939107e-01 6.344032431227376589e-01 1.694406892158661637e-01
2.000000000000000111e-01 2.044633913460934149e+00 -1.058265588692216541e+00 6.086124604104378832e+00 4.093579798337430020e-01 7.616718424710907653e-01 1.059489032530990471e+00 -1.336421660492691510e+00 -7.612067198992983341e-01 -2.184442207875056940e-01
2.000000000000000111e-01 -2.309539205247038751e+01 1.273906717246211429e+01 1.712391466701461695e+00 -1.418513216406907951e+01 7.810678297758876454e+00 4.705316746536596373e-01 1.830918505940636765e+00 1.181604583309558532e+00 -1.100132766297575060e+00
2.000000000000000111e-01 1.698487367545260440e+01 -1.287362146224489301e+00 -1.997930052733321915e+00 9.128273955231936299e+00 -4.037772927388068034e-01 -1.003870551751961271e+00 4.857270106093193318e-01 7.824859205214137470e-01 6.107351836588704730e-01
2.000000000000000111e-01 4.083728057612844076e+00 2.339912020315001673e+00 -9.942417398715761578e-01 -5.465318323341027407e-01 1.107114646930653923e-01 9.466303294711594374e-01 -4.083798253849345583e-01 9.460632332611424999e-01 1.022129414245795065e+00
2.000000000000000111e-01 -1.372478546312461667e+01 -2.628637195281601446e+00 -1.114194537584197597e+01 -6.533340583042908101e+00 -1.007489069070433674e+00 -5.244196973363727032e+00 -2.107969015098144078e-02 4.127555384102606084e-02 1.096106413350836695e+00
2.000000000000000111e-01 1.002154318414513398e-02 5.581090477357542046e-01 -2.650319994974539295e-01 7.993973743631741513e-01 2.718745130906091934e+00 5.734487065032856989e+00 1.425218080926183295e-01 -2.681533460908795963e-01 1.418374357297791155e+00
2.000000000000000111e-01 3.245048025951989246e+01 -4.040688325991680152e+00 -1.823818230686755371e+01 1.686663450714748436e+01 -1.468516988353073982e+00 -8.858386849226393522e+00 -5.235611869307986721e-01 1.637598205090995407e-02 1.805484899473831950e+00
2.000000000000000111e-01 1.143601342402802867e+00 2.513517736827279414e+00 6.021028964863019972e+00 -2.433249110654704117e-01 2.646110732181058633e+00 2.725376558423342477e+00 -3.163202295495595173e-01 9.522321988995448294e-02 -9.461629756402882840e-01
2.000000000000000111e-01 -6.887532479764216786e-01 -1.266058849201437075e+00 -1.245973554155855645e+00 7.984621505683320297e-02 1.319955024583154612e+00 2.132611197922996915e+00 4.174437476093765254e-01 -1.380181655339153934e+00 7.162574535250282315e-01
2.000000000000000111e-01 1.099837424223063742e+01 1.101878618298039214e+01 7.573632883328016874e+00 5.808014162448873918e+00 5.836515351438312571e+00 4.402802408770887688e+00 4.525296649238253477e-01 3.344140889732000188e-01 -8.236417003079894439e-01
2.000000000000000111e-01 -4.469325803408620601e+01 -6.298198684559625171e+00 -1.431730954844856463e+01 -2.351990784530673650e+01 -3.189828853879293824e+00 -7.845705463485429298e+00 9.444238424574774582e-01 -3.599042377706139217e-01 -1.177655621319875223e+00
2.000000000000000111e-01 -3.976077570097495961e-01 -7.421256528210709025e-01 -6.462426874456030923e-01 -3.814912257965845654e+00 -5.777952388721076943e-02 -3.313306269324215680e+00 -7.094150650241234368e-01 -3.432787591816053863e-01 1.729752256166292357e+00
2.000000000000000111e-01 5.976263358899241318e+00 3.857425341315666945e+00 -9.664986415409046572e+00 1.850986157758151451e+00 1.732759185242571220e+00 -4.578653351163963769e+00 -1.396083541317549193e+00 8.191167938667391901e-01 -3.516869100966322215e-01
2.000000000000000111e-01 -2.295807036881564400e+00 -1.606191284464465241e+00 1.230291796701921037e+01 -5.957885754573983839e+00 -9.294298450935020384e+00 2.378111184463418937e+01 2.262981583088385928e-01 -7.784210350138612844e-01 -1.020055248432633954e+00
2.000000000000000111e-01 -7.078793026597262283e+00 -9.012295070631914484e+00 -2.195011559928828682e+00 -2.979128650283703550e+00 -3.157930627314555760e+00 -1.044150692616227838e+00 -1.144496758295514005e-01 5.738673722206977246e-01 1.563535298382324745e-01
2.000000000000000111e-01 1.830985584979808900e+00 2.134989193260317553e+00 3.363079912185007014e+00 -3.223082793663555101e+00 -2.803869725955712155e-01 -1.154812691003481717e+00 8.956669621207787868e-01 -1.940213859434855470e+00 -4.546162688754084025e-01
2.000000000000000111e-01 -7.413299336903726555e+00 1.882419291189222355e+00 -2.405052784501479834e+01 -3.977820021682739515e+00 1.032028820549708570e+00 -1.224614028096215534e+01 1.287839676788305132e+00 1.211425043583911343e-01 -4.177786500589580343e-01
2.000000000000000111e-01 -2.080447416829679597e+00 -6.571267787142573980e-01 -6.424614430339941062e-01 -1.938676024715727753e+00 -1.045424591511313617e+00 3.076382938235346365e-01 1.645292458308862171e+00 6.000702075107278155e-01 -1.452035520500345012e+00
2.000000000000000111e-01 -1.195583420524690510e+01 -6.101871448615221460e+00 -4.094934196700416251e+00 -5.550216151961567590e+00 -2.679694928341232796e+00 -2.405787237217111407e+00 8.565027547425647647e-01 4.045933102233424949e-01 2.699203104838276412e-01
2.000000000000000111e-01 -1.756897368248180324e+00 -1.548119053106099985e+00 7.451503291142242524e+00 -2.098417493567355407e+00 5.288988167134990315e-01 1.854379011833794388e+00 1.079373184858595902e+00 1.168430214982944665e-01 2.078051804633141320e+00
2.000000000000000111e-01 -9.174142694224759476e-01 5.904751498042978136e-02 2.767352057614821947e-01 -5.605567277923478864e-01 -3.542606271384990180e+00 -1.566083653572945433e+00 -3.116156579120536452e-01 -9.656805898680476119e-01 1.049679311352054611e+00
2.000000000000000111e-01 4.483783970142627595e+01 1.141767250138173573e+01 1.541369319242851921e+00 2.347426332713681418e+01 6.124529253146012486e+00 4.944579116441511490e-01 -1.178040336042603387e-01 -1.359939040977154734e-01 2.226318798930941589e-01
2.000000000000000111e-01 1.961369384993985721e+00 -9.153572387929568066e+00 -8.329013795580566537e+00 -1.672718753689582116e-01 -4.714433052344659814e+00 -4.349304869569852627e+00 6.605003871932092485e-01 2.834908369412093565e-01 8.112638664168756453e-01
2.000000000000000111e-01 -2.795872936437526590e+01 1.118083604243326157e+01 2.162782359454692838e+01 -1.355860670623978592e+01 6.090123426890370339e+00 1.117408270257116065e+01 -9.524643725018940854e-01 1.203399519389974637e-01 -7.508942591848019044e-01
2.000000000000000111e-01 2.567491078537508242e-01 -2.776919807426576625e-01 -1.380207599437904387e+00 -4.322226564641574953e+00 -2.755941049388204167e+00 -9.894080347374121231e-01 -8.714850382688268393e-01 -1.451128569074773278e-01 -4.430263072455225548e-01
2.000000000000000111e-01 3.444786293961635604e+00 4.116422526730769249e+01 -1.179559496492465165e+01 1.413297018548946848e+00 2.144374320780616472e+01 -5.692813565427863765e+00 6.653372657258510570e-01 -5.790713660383163264e-01 -9.607341965854655497e-01
2.000000000000000111e-01 -5.254312849453228740e-01 -1.397880262197505497e+00 1.335875885473532254e-01 1.559351782339559955e+00 -1.610476854854264950e+00 6.191493163564512070e-01 -2.987053318640132127e-01 -6.339671642628654791e-01 -2.061552010098763432e+00
2.000000000000000111e-01 4.600887415850159812e+00 7.826217169531141771e+00 -3.965192590807403022e-02 2.064896177647680187e+00 1.560917062661788313e+00 -9.166504755540412219e-01 -7.224952440073477700e-01 6.793649994325586805e-01 -6.342272416482459541e-01
2.000000000000000111e-01 -5.220129173463893268e-01 -2.899737778289768197e+00 -3.956187123040834752e+00 -1.341482544187552639e+00 3.260925100507498509e-01 1.395292633405301075e+00 -7.648265045724579325e-01 -5.277428730811927204e-01 -7.285606645227563627e-01
2.000000000000000111e-01 -4.652046420120753978e-01 -2.758095488153173847e-01 -2.502738702650834646e-01 -1.573564074412997060e+00 -1.669545258909643337e+00 -1.221443657181881637e+00 1.401336077286875259e+00 1.994418133751360456e+00 -2.493633451681860791e+00
2.000000000000000111e-01 -3.139860842578733546e+00 -1.581643836486184007e+00 -2.821669859957181892e+00 2.385564131235639707e+00 -4.196249244791288580e-01 3.293976539074194410e+00 -1.686947643786270434e-01 -1.112949139721709502e-01 1.785866028079163836e+00
2.000000000000000111e-01 -8.845499932799384402e-01 1.650564232641904272e-01 1.081095950009446582e+00 1.521398595514938723e+00 1.746905609802922088e+00 -1.616926934667111349e+00 1.095186438311185118e+00 -2.027299091432454570e-01 -1.658432873299482635e+00
2.000000000000000111e-01 1.438445307331416068e+00 -9.440869398528495271e-01 6.420806830249450314e+00 1.518337785951821672e+00 1.488643127667617749e+00 3.903118932108561090e+00 -6.831357477726296423e-01 -3.446388259010521038e-01 -2.665593068137567245e-01
2.000000000000000111e-01 -6.219841055565333399e+00 -4.097756656007184084e+00 -2.878096580027624807e+00 -2.319958342326515321e+00 4.870085766200495936e-01 1.207869438640075399e-01 -1.592421874085047095e+00 1.156823731462514049e+00 1.069107359911631194e+00
2.000000000000000111e-01 -5.397874190052835530e+00 2.663338352734900383e+00 -2.966103193092787027e+00 -1.174576093149184430e+00 1.986164149738904039e-01 -1.189546586524989458e+00 -1.223310586007041900e+00 9.809448759719592292e-01 3.204576417922734843e-01
2.000000000000000111e-01 6.869999605293998224e-01 -7.417002264188088390e+00 -5.219557541034637538e+00 2.151278448936114196e-01 -1.802603990245304377e+00 -2.206732133092201398e+00 -2.235644314850002146e-01 -1.068210350058179214e+00 6.135394559233900424e-02
2.000000000000000111e-01 9.660076284057964813e+00 2.052258378811039119e+00 1.130294368374891389e+00 3.717309538235411548e+00 7.349602183004074751e-01 1.481444044723387421e+00 -1.979166230203300403e+00 1.097375253062042644e+00 -9.086383778499577124e-01
2.000000000000000111e-01 1.835371746723058362e+00 1.299455506748382394e+00 4.577047198398474848e+00 -7.679397821420441694e-02 -1.957708353163626569e+00 2.328164187437442578e+00 -1.411618830972717564e+00 5.578939698536565794e-01 -4.266426693507894274e-01
2.000000000000000111e-01 1.154108770886611568e+00 1.150499763947290921e+00 2.040991756642400734e+00 5.576713487860471830e-01 8.390400299346337798e-01 -6.321086479923164747e-01 5.830791308948009011e-01 -1.849702544535568594e-01 1.763019130122224221e+00
2.000000000000000111e-01 3.981251300641848445e+01 9.298687204911521675e+00 -3.034674990636779768e+01 2.606420026417811897e+01 5.701355407873452741e+00 -1.989310713932776409e+01 -1.720659399611626839e+00 9.798266126681859367e-01 -5.723369920806001820e-01
2.000000000000000111e-01 2.316354526008295167e+00 5.761379646137527288e+00 -5.117216469639437548e+00 6.377249194708602076e+00 1.045984436455582767e+01 -2.356464137713685147e+01 -2.242880105773636057e+00 -1.565798704276393893e+00 -1.214715150843223290e-01
2.000000000000000111e-01 1.254291323340606557e+00 4.388890746184050951e-01 3.808310303650022099e+00 -2.411811070057199302e+00 2.677612262511679386e+00 1.408439099238939785e-01 4.655558135037913756e-03 -1.120947515242226161e-01 9.164997665003927763e-01
2.000000000000000111e-01 -7.454169519326312443e-01 -3.438249745401939617e+00 -2.964280466243285339e+00 1.490058606129999186e+00 -1.128609164252757147e+00 1.687953514996455961e+00 1.699226508802586522e-01 -6.679689897872609361e-02 -1.017354596041230852e-01
2.000000000000000111e-01 1.576852387166007574e+01 3.466335990813074641e+00 7.687539420014821268e+00 8.369062224019447882e+00 1.690454539019199842e+00 4.006316642525831639e+00 9.575996716961209243e-01 -3.800212820832296057e-01 -5.476042479688690845e-01
2.000000000000000111e-01 -7.833929193346709674e+00 -1.689846709437643213e+01 -3.583032475085849433e-01 -4.177578612338291641e+00 -8.869962262382063756e+00 -5.064917897368903521e-01 1.733335360229991018e+00 1.607423515250675505e+00 -1.463360001873950322e+00
2.000000000000000111e-01 -3.878507205430124838e+00 -1.161819822121027812e+01 -7.582312786350972722e+00 -2.389826602751880191e+00 -5.342646006885022558e+00 -2.247246785902998312e+00 -1.481259929826439725e+00 -5.562455566616666403e-01 6.364195616805071731e-01
2.000000000000000111e-01 -1.816576473478098475e+00 4.002559111233476574e-02 -1.959004663021125525e+00 -1.511057118712049618e+00 1.424844123076320912e+00 -3.322764522024433953e-01 -1.069776904912365989e+00 9.217015482178823049e-01 5.922274772907178964e-01
2.000000000000000111e-01 7.883133108984406723e-02 5.078138817400553506e+00 8.647350772739830660e+00 4.671958655121830617e-01 6.600579722586229492e-01 2.948305523518236715e+00 7.915148001624806584e-01 -1.015363135660433791e+00 -8.048018562985213009e-01
2.000000000000000111e-01 2.599626086309173090e+01 8.312190828493218220e+00 -2.623777995436600463e+01 1.604217390574056878e+01 5.109926118420258234e+00 -1.647458976325203395e+01 1.082903688098803552e-01 -5.069023257663189952e-01 9.891051370425618661e-01
2.000000000000000111e-01 1.046705936055493602e+01 -5.896004155951409587e+00 -3.187916185069601394e+00 6.059996556847140781e+00 -2.794432017188011486e+00 -1.844556860858351355e+00 9.536227737899083401e-01 -1.137963513142421279e+00 -4.347659099736778110e-01
2.000000000000000111e-01 -1.709039336343396664e+00 -2.027589371544594066e+00 -9.469937183321266438e-01 -6.120782141251740471e-01 -8.197669694871227986e-01 -1.311799801403632948e+00 -6.732880253705347817e-01 2.568116709601713232e-01 -1.128152052396058647e-01
2.000000000000000111e-01 -8.451681622026195884e-01 -1.107884697021886966e+00 -1.221277663926334078e+00 -4.086465113558682027e+00 -9.623088625609828028e-01 6.075589396403331399e+00 2.992763546852804102e-01 -5.328473851187549570e-01 -1.297512116512353542e+00
2.000000000000000111e-01 1.421944163637733460e+00 -2.621301696781582757e-01 9.415151501227168040e+00 5.078897396790815755e-02 -1.381104787544963353e+00 4.314027717564514752e+00 5.847261847852484040e-01 -9.341694633415285054e-01 1.877333420170706590e+00
2.000000000000000111e-01 -1.615714712187843016e+00 3.118797626491651709e+00 3.459448933263645554e+00 -1.261725376809742727e+00 1.439250105009845626e+00 -1.482166199555355446e+00 4.795365590435126668e-01 6.818718284222321513e-01 -5.250361889456554021e-01
2.000000000000000111e-01 3.532491669656778743e+00 -9.770511232422678383e-01 -2.522024378887391283e+00 1.896503314107131910e-01 2.087380383571730835e-01 -1.390990948973145347e+00 9.645143198464114498e-01 4.682952647395684509e-01 3.107797749933667864e-01
2.000000000000000111e-01 -1.246829695720660158e+00 -1.423429895137546364e+00 -1.270600926814531073e+00 -1.678315291002522025e-01 -2.656714710790044620e+00 1.785375546413457748e+00 -7.817659407701461616e-01 1.594335185503471530e+00 1.721765692341389320e+00
2.000000000000000111e-01 -6.519918180956717713e+00 -1.685539154200199619e+00 -4.232752904474717859e+00 -2.199201819884950559e+00 -4.611065484283701776e-01 -2.795777255860796728e+00 -1.439414282393020494e+00 1.777630996610942260e+00 -3.724604661493456925e-01
2.000000000000000111e-01 8.070922958684072501e-01 3.543724747479577886e+00 9.550357411500012716e+00 -1.020636322668733165e+00 8.864687694191507594e-01 4.048352984925636555e+00 -1.938215621452891391e+00 -6.327112457936556744e-02 1.103146849808664287e+00
2.000000000000000111e-01 -1.050766723888267862e+00 -3.562339887085281376e+00 -1.160724404081716843e+00 5.779971689103953203e-01 2.017793931424447074e+00 -3.718247806349858742e+00 -6.640342753126907693e-01 -4.956786245842724203e-01 1.591482884198499592e+00
2.000000000000000111e-01 -3.725714948750256661e-01 -5.392986159011384117e+00 1.375986832560191431e+01 -3.690810669485254381e-01 -1.640258512298804039e+00 6.469169120632078496e+00 2.746750731775911558e-01 -4.907863013043615164e-01 -7.109935330655287045e-01
2.000000000000000111e-01 1.397994582096572236e+00 -6.490414132424795035e+00 2.201958579878418831e+01 -4.628780542491661015e-02 -4.012612769009733960e+00 1.393819979395629005e+01 1.176877925213579978e-01 1.227415732175720919e-01 -8.556183829225534332e-01
2.000000000000000111e-01 -2.290367959518888608e+00 3.196914017342709635e-01 2.654931998215321443e+00 -1.851446674091524192e-01 -2.796556135160878087e-01 3.819791653359483341e+00 1.299762502845322132e+00 -1.351280231070889626e-01 1.318074112029440803e+00
2.000000000000000111e-01 -5.492397309686168905e-01 -1.220517712653541942e+01 1.710924622558913422e+00 -8.489464385614859943e-01 -5.944959634845771390e+00 1.053412450806467948e+00 -7.681547079383016507e-01 3.254067364212411273e-01 4.054419149060385641e-02
2.000000000000000111e-01 3.469240379886682768e-01 6.806469952931298861e-01 8.505935934705411983e-01 2.153591358389863597e-01 -4.443913184114993697e+00 -4.616937979849573548e-01 -1.180614442082631235e-02 -1.495239641433372180e+00 4.810501795975972161e-01
2.000000000000000111e-01 -1.356691609043398694e+00 -1.033468521559999909e+00 -1.145947851457820077e+00 -2.278239927119147801e+00 -4.180346644705159598e+00 -6.088479055721531807e-01 2.076422368118658213e+00 -8.757048250047075877e-01 -6.108924061946308104e-01
2.000000000000000111e-01 9.464889854681601378e+00 -6.151590996335728256e+00 1.501813963951562947e+01 4.196806576903292729e+00 -2.468884607602261472e+00 7.838973037439985525e+00 -8.641747394930455739e-01 8.021400794108747290e-01 -3.456058189353753418e-01
2.000000000000000111e-01 9.030259173959587216e+00 -4.036552674319383804e+00 6.715164591402105643e+00 4.066549410761980177e+00 -6.786563647026326862e-01 2.565226392006178635e+00 3.204707377370521471e-01 3.685896668600501247e-01 -1.308636580605316846e+00
2.000000000000000111e-01 -4.409402408252606875e+00 2.999469495344359693e+00 -2.946260987880483029e+01 -3.611666548330880744e+00 1.527811659225631891e+00 -1.816925318323986716e+01 8.395407107930650259e-01 -1.097577593934054407e+00 -2.811400118188451258e-01
