# Total Kinetic Energy: 113706.6680104109 J
# Total Potential Energy: -290.62190714891517 J
# Total Energy: 113416.04610326198 J
# mass x y z vx vy vz ax ay az
2.000000000000000111e-01 1.193152411571601457e+00 -1.351002852302267021e+00 4.095623590857679908e+00 3.674818976605993548e-01 -8.276491823625716782e-01 2.142101795663769792e+00 -8.966043962736165440e-01 6.963139999641968503e-01 -4.318718804335897610e-01
2.000000000000000111e-01 1.566127506300634575e+00 6.803277471052180836e+00 3.439524535707459307e+00 9.565407928982964103e-01 2.478918594889499172e+00 2.388898289663699437e+00 -8.638420432590800946e-01 7.477608111009810266e-01 -8.297878829518955390e-01
2.000000000000000111e-01 -7.071134254894390070e-01 1.406063815887738322e+00 1.000400725580703032e+01 3.980829549501005427e-01 4.718557767078592757e-01 5.385107333864494805e+00 9.641895495286434414e-01 -7.350472763951455546e-01 1.373103499606344924e+00
2.000000000000000111e-01 2.449570249061965299e+00 1.672600667216437964e+00 3.575043844937952908e+00 -5.528853061052874107e-01 3.449522485678385042e+00 -1.335240237764066640e+00 -5.460842563394595617e-01 -1.562379614909943371e+00 1.380396280783603880e+00
2.000000000000000111e-01 -1.362772965791619217e+00 -1.927037704435675902e+00 -3.228829786395516488e-02 -3.078593458751020862e+00 -1.243163766026698785e-01 -2.442814357202961695e+00 8.297013594807493009e-01 2.265106253250432911e+00 9.937754100366300372e-03
2.000000000000000111e-01 -1.639035612123535657e+01 -3.568684695723554512e+01 1.127564081482304026e+01 -1.069073832163612181e+01 -2.195511050107510798e+01 7.467437100234787017e+00 5.503421260199654018e-03 -6.324108284545006953e-01 -1.983938834140225038e-01
2.000000000000000111e-01 1.521618725315496690e+00 4.107161544512804019e-01 -1.251712899589809247e+00 7.508055506067922158e-01 -1.394857960543037789e+00 2.155963690498496899e+00 1.185290918075305733e+00 1.180817650969794297e+00 4.342061600991873882e-01
2.000000000000000111e-01 1.455902539647241589e+00 3.901401435585428512e+00 5.879391141075776872e+00 -6.697841001438044062e-01 3.777298640367353078e-01 2.786818537046227728e+00 6.301270386930696299e-01 -1.153803380428851000e+00 -5.839674396223903247e-02
2.000000000000000111e-01 8.895569799026474822e-01 -4.718123872350912795e-01 8.344387530601260039e+00 -1.520226871216519449e+00 1.176225048606939882e+00 2.835845105934021504e+00 4.819874889720659472e-01 6.233897045599963160e-01 7.806367264006173201e-01
2.000000000000000111e-01 -4.657396832108562812e+00 -7.679209405235045693e+00 -9.993396194824542889e+00 -2.570312781213442310e+00 -4.102533024245229143e+00 -5.340984144037286718e+00 -5.073469463042808991e-01 -1.432177634536540234e+00 -5.631686098712457289e-01
2.000000000000000111e-01 -2.207246176144565808e-01 -5.721966073155875243e-01 -6.494723067947603123e-01 2.515128922527898769e+00 2.361498453870776615e+00 -1.762418182195332639e+00 1.112131061580115432e+00 -1.326002105085030414e-01 1.219961580377953547e+00
2.000000000000000111e-01 -2.537150103518549926e+01 -4.442401168826615176e+00 2.228219077430185635e+01 -2.224095219829828807e+01 -4.439335455965982113e+00 1.943859545987674053e+01 2.699041547263745788e-01 1.989345446514553695e+00 -2.737681246386168277e-01
2.000000000000000111e-01 -2.734235677481204441e+00 2.202223019285398209e+00 5.253231804581299791e+00 5.630018261797964385e-01 -4.930577095840895652e-01 2.560245902150996677e+00 -2.937911826042545194e+00 1.305695967249574041e+00 3.492309820269403620e-01
2.000000000000000111e-01 9.328677703304659730e+00 -1.397368162401520175e+00 -7.730989971615337408e-01 6.142611091072086360e+00 -6.140726263537521490e-01 -4.322500402956596099e-01 -7.536403006720584496e-01 -1.568655641053418592e-01 -1.413495907973157106e-01
2.000000000000000111e-01 3.601134548490283915e+00 -2.369647064610121312e+00 -3.738454817055314461e+00 1.040823828198315759e+00 2.831881824843839324e-01 -1.387349678017157029e+00 1.119353522796681794e-01 2.620936284584423070e+00 4.785062303361312108e-01
2.000000000000000111e-01 1.855186488258566913e+00 1.978428211186059116e+01 -2.416061743316774724e+01 1.127192562992637814e+00 1.338207384797390453e+01 -1.618489418892957588e+01 2.322625098397875565e+00 9.424909421025224887e-01 3.856692653494809275e-01
2.000000000000000111e-01 -1.446810101525111136e+01 -1.314935173604557050e+01 1.467402380976661647e+01 -1.086259522615539375e+01 -9.849323252141335416e+00 1.047702362384634611e+01 -7.799893016850598104e-02 -3.623660123757801999e-01 9.463559795580524237e-02
2.000000000000000111e-01 3.560276653702507815e-02 1.107228411411704583e+00 -1.929173013002832171e+00 3.547796063965941382e+00 -9.525645621974839772e-01 -1.957350086112114695e+00 -2.822203611955039215e-01 -3.743734202435109598e-02 6.932200910895870427e-01
2.000000000000000111e-01 4.301344961287790203e-01 1.986952119545863038e+00 4.479840685236070819e+00 7.591656292043425402e+00 7.182127168768047909e+00 7.131601271322232982e+00 1.092051761507943697e+00 -1.776818162249802213e-01 -1.957260997796935964e+00
2.000000000000000111e-01 -5.013675260924845389e+00 4.456376059092335140e+00 4.757696643775143563e+00 -1.594315438830857357e+00 2.897588279916998300e+00 2.774781728755083332e+00 -1.664407931597272627e-01 -9.650068241224063481e-01 3.546644428898021451e-01
2.000000000000000111e-01 -3.118828452310571375e+00 -2.395341898049154761e+00 -1.319728200708510490e+00 -2.364902952913957801e+00 -5.767781598706651636e+00 -9.512757484930576268e+00 1.614489561108785332e-01 -5.663598480014984116e-01 -1.317715235282914538e-02
2.000000000000000111e-01 -7.837745814655209919e+00 1.195738951089371760e+01 1.878341140266007869e+01 -5.202176257266420301e+00 7.440798038811601067e+00 1.194456381740407558e+01 6.295661757179298323e-01 -1.537997823929941443e+00 3.874429109039332908e-01
2.000000000000000111e-01 -1.183922614712051180e+00 6.831355995996956088e-01 -1.037729469331531984e+00 2.217050067880285358e+00 8.606433160729608511e-01 -1.916332230706807804e+00 1.218003542201554712e+00 2.790102563485865605e-01 -9.241176421201500180e-01
2.000000000000000111e-01 -1.064867100519890364e-01 -4.048805734406836221e-01 -7.973677947400987787e-01 2.579320581675576651e+00 -9.673396142173587009e-01 5.444060849499211763e+00 1.613871496129092753e+00 6.812046624892643676e-01 -6.590206085151249261e-03
2.000000000000000111e-01 -1.128217165571818503e+00 -4.449962319853690396e+00 -3.392687786562348151e+00 -1.463192686844485113e+00 -2.588376522067944996e-01 -1.108284442982061524e+00 -5.432097655884298160e-01 8.423833018329252020e-01 -1.494328948952003411e-01
2.000000000000000111e-01 5.779658733785097979e+00 -4.499019029285196147e+00 -1.172047936992031936e+01 3.308957455897953981e+00 -9.662757557883990822e-01 -6.631056052194147732e+00 -8.719875287864491120e-02 -3.539668042882763155e-01 5.144601091997094144e-01
2.000000000000000111e-01 -7.002896110293174159e-01 -2.896261559435058253e-01 -1.676829490287376379e+00 2.316937553527008919e+00 -3.348737570486931547e-02 6.644460842301096015e+00 2.974928503074385500e-01 1.880010619296722807e-01 1.301228515883393833e+00
2.000000000000000111e-01 -7.767747212579330096e-01 -7.336992343952126738e-01 -1.430517129651240671e+00 -5.595092863630829250e+00 2.176351558073827963e+00 -2.983940655274249565e+00 9.941663314276857899e-02 -1.730516482962342284e+00 1.597179739205750515e+00
2.000000000000000111e-01 -1.491091961291340251e+00 -1.407520020312436726e+00 -8.263816096806725353e-01 -1.742551769762692659e+00 -3.366381956562010558e+00 -1.017758333985811614e+00 3.571589793730877149e-01 5.647964869292386725e-01 -5.523340820094913006e-01
2.000000000000000111e-01 -5.759136026734569258e-01 -2.491830687773599617e+00 1.155860205884276626e+00 3.136154391195393742e+00 -3.239019255721940826e+00 1.560848923906546837e+00 -1.931708422166933392e-01 -5.189179524242124586e-01 -1.345254381590285479e-02
2.000000000000000111e-01 -8.539998993121467041e-01 -3.858527449569346124e-02 -1.570502669960721354e-01 4.225513679620357621e+00 -3.140973923811082980e+00 8.528666483605930049e-01 -9.242347930784594601e-01 7.576997478856134505e-02 -1.392233521600583779e-01
2.000000000000000111e-01 -3.294017225430633466e+00 -1.303022132253621956e+00 -3.115785150148942861e+00 8.653112879073013852e-01 9.597486252917022398e-01 4.137165660137657186e-01 5.957694771162939107e-01 6.344032431227376589e-01 1.694406892158661637e-01
2.000000000000000111e-01 1.624476198415117034e+00 -1.237767864918934979e+00 5.626430388035601915e+00 2.011945206583209522e+00 3.561604984620642123e-01 2.007298633050225156e+00 -1.336421660492691510e+00 -7.612067198992983341e-01 -2.184442207875056940e-01
2.000000000000000111e-01 -1.840228776565562541e+01 1.015425078485440480e+01 1.556799460968932181e+00 -1.426373315593224156e+01 7.858405573801798383e+00 4.727509550679453443e-01 1.830918505940636765e+00 1.181604583309558532e+00 -1.100132766297575060e+00
2.000000000000000111e-01 1.393900718991701915e+01 -1.152500701857943399e+00 -1.660794783293482624e+00 9.346255155892958300e+00 -4.146486382211275745e-01 -1.041995992585618591e+00 4.857270106093193318e-01 7.824859205214137470e-01 6.107351836588704730e-01
2.000000000000000111e-01 4.148592180609735891e+00 2.231333188439031723e+00 -1.271718171017200749e+00 1.668910995581819323e-01 5.541090177809803174e-01 7.157935415834205672e-01 -4.083798253849345583e-01 9.460632332611424999e-01 1.022129414245795065e+00
2.000000000000000111e-01 -1.154499222567785743e+01 -2.295587475315423731e+00 -9.392075828982980212e+00 -6.686562396684929688e+00 -1.011457603331721966e+00 -5.368337416104256299e+00 -2.107969015098144078e-02 4.127555384102606084e-02 1.096106413350836695e+00
2.000000000000000111e-01 -3.267667807513385814e-01 -7.536136084182964989e-01 -1.882956518315535233e+00 2.593774142911877689e+00 4.221148795916823460e+00 3.034487672736359887e+00 1.425218080926183295e-01 -2.681533460908795963e-01 1.418374357297791155e+00
2.000000000000000111e-01 2.687778138911713555e+01 -3.554620589513457940e+00 -1.531141721373691489e+01 1.690999687408791274e+01 -1.478078805615708813e+00 -8.881002231264485403e+00 -5.235611869307986721e-01 1.637598205090995407e-02 1.805484899473831950e+00
2.000000000000000111e-01 1.230776857274560099e+00 1.635170635387804161e+00 5.007768846017313535e+00 -1.497458157542462531e-01 2.552944728845542688e+00 3.605043741782012034e+00 -3.163202295495595173e-01 9.522321988995448294e-02 -9.461629756402882840e-01
2.000000000000000111e-01 -1.150164148827437893e+00 -4.192442553323645904e-01 -1.712722880317694152e+00 2.660391223468083322e+00 -4.843693889305972000e+00 -2.835201938470032434e+00 4.174437476093765254e-01 -1.380181655339153934e+00 7.162574535250282315e-01
2.000000000000000111e-01 9.061397429052835406e+00 9.069491888033450522e+00 6.109502668694910987e+00 5.940277995473544514e+00 5.987320191819414994e+00 4.475161926475550445e+00 4.525296649238253477e-01 3.344140889732000188e-01 -8.236417003079894439e-01
2.000000000000000111e-01 -3.692685055492611923e+01 -5.244950756995566898e+00 -1.172661349981613910e+01 -2.355123831509220977e+01 -3.193744636613882637e+00 -7.856132397530523725e+00 9.444238424574774582e-01 -3.599042377706139217e-01 -1.177655621319875223e+00
2.000000000000000111e-01 2.217644704932226207e-01 -3.487096186476029702e-01 6.607017545194511510e-02 1.122107924770682441e+00 -2.379336356726246215e+00 1.247522845577971051e-01 -7.094150650241234368e-01 -3.432787591816053863e-01 1.729752256166292357e+00
2.000000000000000111e-01 5.342480924793127528e+00 3.266196321684618820e+00 -8.115593321298074869e+00 1.997802608531151103e+00 1.857935308824358200e+00 -4.822556112361585434e+00 -1.396083541317549193e+00 8.191167938667391901e-01 -3.516869100966322215e-01
2.000000000000000111e-01 -2.750456591940059758e-01 1.475436255140871289e+00 4.375359684724142717e+00 -6.385454792614743802e+00 -9.369762586032425844e+00 2.433841420855984694e+01 2.262981583088385928e-01 -7.784210350138612844e-01 -1.020055248432633954e+00
2.000000000000000111e-01 -6.058728331524516619e+00 -7.921362072933915144e+00 -1.848105827518847555e+00 -3.213603943909644656e+00 -3.470165435286975963e+00 -1.058619640250975991e+00 -1.144496758295514005e-01 5.738673722206977246e-01 1.563535298382324745e-01
2.000000000000000111e-01 2.329193132179752990e+00 1.667123310678214398e+00 3.403141014238838746e+00 -1.090171720601942562e+00 -1.001192576899623488e+00 3.957272414833428176e-01 8.956669621207787868e-01 -1.940213859434855470e+00 -4.546162688754084025e-01
2.000000000000000111e-01 -6.094507476488292497e+00 1.540307372124180230e+00 -1.999730359022718318e+01 -4.018222278000382452e+00 1.041803069034938023e+00 -1.232346873133480258e+01 1.287839676788305132e+00 1.211425043583911343e-01 -4.177786500589580343e-01
2.000000000000000111e-01 -7.744573929433909987e-01 -4.934635840335112045e-01 -9.493937832747399996e-01 -6.678058287026413353e+00 -8.271905291376207003e-01 1.801500202075003498e+00 1.645292458308862171e+00 6.000702075107278155e-01 -1.452035520500345012e+00
2.000000000000000111e-01 -1.007944958448971029e+01 -5.201398511694040216e+00 -3.291010188909738510e+00 -5.839075709564301775e+00 -2.784161244082892672e+00 -2.469206699100673585e+00 8.565027547425647647e-01 4.045933102233424949e-01 2.699203104838276412e-01
2.000000000000000111e-01 -1.003307596459492634e+00 -1.663618510502788306e+00 6.771059561249091807e+00 -2.484732067987055260e+00 1.367153273458413809e-01 2.310746498893762713e+00 1.079373184858595902e+00 1.168430214982944665e-01 2.078051804633141320e+00
2.000000000000000111e-01 -4.799115236475300916e-01 7.563934393337002904e-01 5.675300072015558861e-01 -1.741456090135195423e+00 -8.487712186025540007e-01 -7.581761717820309499e-03 -3.116156579120536452e-01 -9.656805898680476119e-01 1.049679311352054611e+00
2.000000000000000111e-01 3.708612827045441662e+01 9.395157178541559517e+00 1.377819400939650496e+00 2.350796403708647730e+01 6.133722522423091128e+00 4.969292647930674267e-01 -1.178040336042603387e-01 -1.359939040977154734e-01 2.226318798930941589e-01
2.000000000000000111e-01 1.997639476304486239e+00 -7.557719402383164642e+00 -6.852669139416815547e+00 -4.098583549558967171e-02 -4.972746614462141501e+00 -4.615444495774484679e+00 6.605003871932092485e-01 2.834908369412093565e-01 8.112638664168756453e-01
2.000000000000000111e-01 -2.347818772150241529e+01 9.168274173161464091e+00 1.793598169418292798e+01 -1.359867570497389266e+01 6.108360927842706900e+00 1.120242968535944605e+01 -9.524643725018940854e-01 1.203399519389974637e-01 -7.508942591848019044e-01
2.000000000000000111e-01 1.353010042189536577e+00 5.265700998699888169e-01 -7.076523105454546325e-01 -2.677370924431421439e+00 -1.765198940456970345e+00 -2.204123210505137820e+00 -8.714850382688268393e-01 -1.451128569074773278e-01 -4.430263072455225548e-01
2.000000000000000111e-01 2.978020720565333956e+00 3.408218952258983592e+01 -9.915530281736216978e+00 1.415757536427185048e+00 2.147995619317853411e+01 -5.702132146908041932e+00 6.653372657258510570e-01 -5.790713660383163264e-01 -9.607341965854655497e-01
2.000000000000000111e-01 -8.712359659419541824e-01 -2.690211761060266604e-01 -4.314136601070464039e-01 -6.194970555356136277e-01 -5.206394692595283757e+00 3.208857551895335725e+00 -2.987053318640132127e-01 -6.339671642628654791e-01 -2.061552010098763432e+00
2.000000000000000111e-01 3.886168017278382791e+00 7.246655252368636724e+00 2.746539317894349241e-01 2.273283551223031385e+00 1.970023980986722378e+00 -9.949618805893782891e-01 -7.224952440073477700e-01 6.793649994325586805e-01 -6.342272416482459541e-01
2.000000000000000111e-01 -1.637111669068339881e-01 -2.954295481909015031e+00 -4.180209339838158122e+00 -8.053442080586743490e-01 -4.884720604819113576e-02 1.487031883072309491e-03 -7.648265045724579325e-01 -5.277428730811927204e-01 -7.285606645227563627e-01
2.000000000000000111e-01 -9.933349097145216522e-02 -2.827189713844460717e-01 -1.475174776861765680e-01 -3.243395448869894060e-01 2.248723085841333624e+00 1.506406037240274554e+00 1.401336077286875259e+00 1.994418133751360456e+00 -2.493633451681860791e+00
2.000000000000000111e-01 -3.546921080682221561e+00 -1.124771946738825523e+00 -3.671475979330184103e+00 1.659475308362075019e-01 -1.728913526267511047e+00 1.384622766659557858e+00 -1.686947643786270434e-01 -1.112949139721709502e-01 1.785866028079163836e+00
2.000000000000000111e-01 -1.200911101623782118e+00 -5.155586097168114446e-01 1.139955442633386662e+00 4.480345096235417435e-01 1.973435548463865041e+00 1.057880382562317090e+00 1.095186438311185118e+00 -2.027299091432454570e-01 -1.658432873299482635e+00
2.000000000000000111e-01 1.115666095973838479e+00 -1.383623306937834085e+00 4.993672388521209982e+00 5.443716223630504780e-01 1.037921713298678217e+00 4.623561327656772413e+00 -6.831357477726296423e-01 -3.446388259010521038e-01 -2.665593068137567245e-01
2.000000000000000111e-01 -5.353803612800089873e+00 -4.194978865455588846e+00 -2.897230405954679178e+00 -2.930646076390086563e+00 7.621345216594220540e-02 -3.018280329592804706e-02 -1.592421874085047095e+00 1.156823731462514049e+00 1.069107359911631194e+00
2.000000000000000111e-01 -4.922805492266205896e+00 2.524234814600094357e+00 -2.531786134366905028e+00 -1.726713633975589079e+00 6.627332518978102938e-01 -1.450112087683512740e+00 -1.223310586007041900e+00 9.809448759719592292e-01 3.204576417922734843e-01
2.000000000000000111e-01 5.965126365223498706e-01 -6.751731727209960177e+00 -4.452204499921932346e+00 3.360608858444378289e-01 -2.251907472857076709e+00 -2.446625797719620188e+00 -2.235644314850002146e-01 -1.068210350058179214e+00 6.135394559233900424e-02
2.000000000000000111e-01 8.374489009257320760e+00 1.791408662698042331e+00 6.392671641067895205e-01 4.093675859356501689e+00 8.534469321614047699e-01 1.492531766206564914e+00 -1.979166230203300403e+00 1.097375253062042644e+00 -9.086383778499577124e-01
2.000000000000000111e-01 1.861148262175113421e+00 1.934767384750758934e+00 3.561679589437562576e+00 -6.734713266749062788e-01 -1.599746550122283395e+00 3.929605217266678885e+00 -1.411618830972717564e+00 5.578939698536565794e-01 -4.266426693507894274e-01
2.000000000000000111e-01 8.807072046468280568e-01 8.033534216593415378e-01 2.171845624271206976e+00 1.077316554012194949e+00 1.176529344760593343e+00 -1.352382126095426351e-01 5.830791308948009011e-01 -1.849702544535568594e-01 1.763019130122224221e+00
2.000000000000000111e-01 3.120717217957328060e+01 7.416151646385766405e+00 -2.377893737708744837e+01 2.609158010398270733e+01 5.708627679652735765e+00 -1.991344661663636373e+01 -1.720659399611626839e+00 9.798266126681859367e-01 -5.723369920806001820e-01
2.000000000000000111e-01 1.840981636973101909e-01 2.191850984447295758e+00 2.704218450579534583e+00 6.540760295446596650e+00 1.139400873589707253e+01 -2.373179079261800695e+01 -2.242880105773636057e+00 -1.565798704276393893e+00 -1.214715150843223290e-01
2.000000000000000111e-01 1.997098126610498348e+00 -3.655442137767763722e-01 3.696790351502405425e+00 -1.940229629333662276e+00 2.235804427963349106e+00 4.995824985121887218e-01 4.655558135037913756e-03 -1.120947515242226161e-01 9.164997665003927763e-01
2.000000000000000111e-01 -1.246268817131058970e+00 -2.920495584142197565e+00 -3.440024327599705334e+00 1.425176173648400324e+00 -1.950904381548396183e+00 1.099373335723604406e+00 1.699226508802586522e-01 -6.679689897872609361e-02 -1.017354596041230852e-01
2.000000000000000111e-01 1.297866650990064663e+01 2.902108605023881793e+00 6.353475276440421204e+00 8.550811996130246229e+00 1.731771242758730178e+00 4.083906787249501846e+00 9.575996716961209243e-01 -3.800212820832296057e-01 -5.476042479688690845e-01
2.000000000000000111e-01 -6.442903839967668134e+00 -1.394367073820746050e+01 -1.926543661155198928e-01 -4.257881922018804666e+00 -9.049624420787935719e+00 -4.962302549359930981e-01 1.733335360229991018e+00 1.607423515250675505e+00 -1.463360001873950322e+00
2.000000000000000111e-01 -3.079713925818762910e+00 -9.815417590172199169e+00 -6.818353200644774681e+00 -2.453586486395567423e+00 -5.596400555005408783e+00 -2.391638124673730381e+00 -1.481259929826439725e+00 -5.562455566616666403e-01 6.364195616805071731e-01
2.000000000000000111e-01 -1.173819065216296531e+00 -5.809278693988078057e-01 -1.648232640552451000e+00 -4.438782747584577137e+00 2.319770929088181166e+00 -3.126910291951506160e+00 -1.069776904912365989e+00 9.217015482178823049e-01 5.922274772907178964e-01
2.000000000000000111e-01 -4.601194506182878369e-02 4.766646463242566689e+00 7.609264996624437671e+00 2.864589210213855375e-01 1.241141896843701353e+00 3.366991791009065427e+00 7.915148001624806584e-01 -1.015363135660433791e+00 -8.048018562985213009e-01
2.000000000000000111e-01 2.069788377155023440e+01 6.623870899529492817e+00 -2.079586796225033041e+01 1.607135702950493084e+01 5.123353679090893564e+00 -1.650923704302575246e+01 1.082903688098803552e-01 -5.069023257663189952e-01 9.891051370425618661e-01
2.000000000000000111e-01 8.428023455231022254e+00 -4.946738101256727305e+00 -2.565086319059065367e+00 6.314460395343695964e+00 -2.971149005875994842e+00 -1.935204091959931150e+00 9.536227737899083401e-01 -1.137963513142421279e+00 -4.347659099736778110e-01
2.000000000000000111e-01 -2.131601915638115852e+00 -1.490456651999719329e+00 -8.800129712120329240e-01 1.625512284533721930e-01 -1.121205963418961060e+00 -9.481072274508065001e-02 -6.732880253705347817e-01 2.568116709601713232e-01 -1.128152052396058647e-01
2.000000000000000111e-01 7.257814641063052921e-03 -1.209513493393174599e+00 -2.374295084227372676e+00 -1.291062326817134620e+00 -4.746890955940267220e-01 1.702184995466620832e+00 2.992763546852804102e-01 -5.328473851187549570e-01 -1.297512116512353542e+00
2.000000000000000111e-01 1.230004256438730126e+00 1.924032989598282173e-01 7.894206309316840198e+00 1.080274236073696992e+00 -1.186070124354516420e+00 4.815002397987004912e+00 5.847261847852484040e-01 -9.341694633415285054e-01 1.877333420170706590e+00
2.000000000000000111e-01 -1.126482140533977772e+00 2.535281579959975495e+00 3.902813236748228221e+00 -1.753634641071260436e+00 2.114293392308716157e+00 -1.197081409394045615e+00 4.795365590435126668e-01 6.818718284222321513e-01 -5.250361889456554021e-01
2.000000000000000111e-01 3.313762975723478554e+00 -1.027298688767160462e+00 -1.999058811592445695e+00 1.166810390863929792e+00 7.161335228063653302e-02 -1.778957529105287705e+00 9.645143198464114498e-01 4.682952647395684509e-01 3.107797749933667864e-01
2.000000000000000111e-01 -7.156237087784839135e-01 -2.597082634997651129e-01 -1.531885209344945320e+00 -4.288796580686683235e+00 -2.994856349210530233e+00 9.839205673476834058e-01 -7.817659407701461616e-01 1.594335185503471530e+00 1.721765692341389320e+00
2.000000000000000111e-01 -5.679512398142151142e+00 -1.540316259161148116e+00 -3.250751035846074721e+00 -2.953858719189957682e+00 -4.298952022898180902e-01 -3.157374138679505116e+00 -1.439414282393020494e+00 1.777630996610942260e+00 -3.724604661493456925e-01
2.000000000000000111e-01 1.124206252875735279e+00 3.215751607928034606e+00 8.113789728113815158e+00 -8.807364027710891108e-01 1.119506148292567227e+00 4.685465255922879102e+00 -1.938215621452891391e+00 -6.327112457936556744e-02 1.103146849808664287e+00
2.000000000000000111e-01 -1.233716312788588620e+00 -3.941653942530981780e+00 3.731359193569976779e-02 4.948592002489123343e-01 3.433225049660703632e-01 -3.510020668335795957e+00 -6.640342753126907693e-01 -4.956786245842724203e-01 1.591482884198499592e+00
2.000000000000000111e-01 -2.474405049714812899e-01 -4.825924998633366769e+00 1.158521942308655106e+01 -3.930893298191424634e-01 -1.801874636911278360e+00 6.721618858670964869e+00 2.746750731775911558e-01 -4.907863013043615164e-01 -7.109935330655287045e-01
2.000000000000000111e-01 1.412072518918195740e+00 -5.158991511810204322e+00 1.739750102792518760e+01 -3.814537617616792914e-02 -4.060198681226378170e+00 1.408583567875970743e+01 1.176877925213579978e-01 1.227415732175720919e-01 -8.556183829225534332e-01
2.000000000000000111e-01 -2.037507379948136688e+00 3.568023731811574839e-01 1.224810310050810536e+00 -1.504857921190819292e+00 1.479928579305548608e-01 4.910500416325896289e+00 1.299762502845322132e+00 -1.351280231070889626e-01 1.318074112029440803e+00
2.000000000000000111e-01 -2.710341430457643419e-01 -1.019327624984951797e+01 1.352547267487336224e+00 -8.351422781857013034e-01 -6.267241853612187441e+00 1.122825340851957288e+00 -7.681547079383016507e-01 3.254067364212411273e-01 4.054419149060385641e-02
2.000000000000000111e-01 1.610921393614480057e-01 1.866232837973706538e+00 8.462890128554725333e-01 7.853029386308848503e-01 -2.741884442153974977e+00 2.979248290568873303e-01 -1.180614442082631235e-02 -1.495239641433372180e+00 4.810501795975972161e-01
2.000000000000000111e-01 -5.549796078197207772e-01 -2.866039084410945126e-01 -9.059857981720362829e-01 -8.135350001606196368e-01 8.506573975042821534e-01 -1.014694821521882728e+00 2.076422368118658213e+00 -8.757048250047075877e-01 -6.108924061946308104e-01
2.000000000000000111e-01 8.062894652762537362e+00 -5.325300896275834361e+00 1.240922339053027024e+01 4.306831571500717715e+00 -2.543841350344604901e+00 7.981059355705060199e+00 -8.641747394930455739e-01 8.021400794108747290e-01 -3.456058189353753418e-01
2.000000000000000111e-01 7.646792521993341474e+00 -3.790116349273705776e+00 5.845417981823378462e+00 4.331394428177759437e+00 -8.244935544148455087e-01 2.713678052070704894e+00 3.204707377370521471e-01 3.685896668600501247e-01 -1.308636580605316846e+00
2.000000000000000111e-01 -3.217547937200810004e+00 2.493116022455041936e+00 -2.345268084203104664e+01 -3.610469459883640209e+00 1.542542799647098395e+00 -1.826167072031628535e+01 8.395407107930650259e-01 -1.097577593934054407e+00 -2.811400118188451258e-01
