# Total Kinetic Energy: 113757.38955286046 J
# Total Potential Energy: -265.08220730227293 J
# Total Energy: 113492.30734555819 J
# mass x y z vx vy vz ax ay az
2.000000000000000111e-01 1.250773372433371389e+00 -1.451788468417048783e+00 4.466356258443516580e+00 3.099512204203574983e-01 -3.689662762349520397e-01 2.188164258677264939e+00 -8.966043962736165440e-01 6.963139999641968503e-01 -4.318718804335897610e-01
2.000000000000000111e-01 1.724739010986986232e+00 7.198035424614132261e+00 3.841487990896587323e+00 9.103674333664503182e-01 2.173337444180484468e+00 2.340568707415401128e+00 -8.638420432590800946e-01 7.477608111009810266e-01 -8.297878829518955390e-01
2.000000000000000111e-01 -6.316094287745435132e-01 1.482453689605188973e+00 1.089212676118848044e+01 4.856220737762966810e-01 4.254670698242461468e-01 5.065214502605442703e+00 9.641895495286434414e-01 -7.350472763951455546e-01 1.373103499606344924e+00
2.000000000000000111e-01 2.059474669991248064e+00 1.824087407665759830e+00 3.321753501227512562e+00 -2.136529903503353811e+00 -5.477774926024343571e-01 2.506184328941188921e-01 -5.460842563394595617e-01 -1.562379614909943371e+00 1.380396280783603880e+00
2.000000000000000111e-01 -1.847008341058893777e+00 -1.826284281836010104e+00 -5.536802062660468593e-01 -2.560255073544651871e+00 1.416206420867507365e+00 -4.131914188924078246e+00 8.297013594807493009e-01 2.265106253250432911e+00 9.937754100366300372e-03
2.000000000000000111e-01 -1.820718363059155465e+01 -3.941783080302594300e+01 1.254469931308834063e+01 -1.068392898662347612e+01 -2.193934860871900128e+01 7.462819228161442275e+00 5.503421260199654018e-03 -6.324108284545006953e-01 -1.983938834140225038e-01
2.000000000000000111e-01 1.469118002549178792e+00 1.635608040764521265e-01 -7.992014239775372397e-01 -1.474499224120082719e+00 -1.551031328893193617e+00 2.828742976722154356e+00 1.185290918075305733e+00 1.180817650969794297e+00 4.342061600991873882e-01
2.000000000000000111e-01 1.330204885453283081e+00 3.931143357433430019e+00 6.331359814183469936e+00 -7.881575945375555170e-01 -5.042517129601511994e-02 2.511788709782462270e+00 6.301270386930696299e-01 -1.153803380428851000e+00 -5.839674396223903247e-02
2.000000000000000111e-01 6.543254468680708147e-01 -2.358131699910751000e-01 8.777107331635642495e+00 -1.183342574969276084e+00 1.570078524356521399e+00 2.288646274918797019e+00 4.819874889720659472e-01 6.233897045599963160e-01 7.806367264006173201e-01
2.000000000000000111e-01 -5.089878929567498211e+00 -8.370994244030404374e+00 -1.089068464784029011e+01 -2.519380310917184840e+00 -4.037982883186418626e+00 -5.219047021762420968e+00 -5.073469463042808991e-01 -1.432177634536540234e+00 -5.631686098712457289e-01
2.000000000000000111e-01 3.173770587347169436e-01 8.494619489917549365e-03 -6.274801962150664547e-01 2.268666204499883765e+00 2.923043118929150808e+00 1.089288543130358944e+00 1.112131061580115432e+00 -1.326002105085030414e-01 1.219961580377953547e+00
2.000000000000000111e-01 -2.915081999823120995e+01 -5.196771507406450219e+00 2.558534134596824217e+01 -2.222245206240684112e+01 -4.435771066268531904e+00 1.942271227087490004e+01 2.699041547263745788e-01 1.989345446514553695e+00 -2.737681246386168277e-01
2.000000000000000111e-01 -2.608513690125510820e+00 2.107452995625718195e+00 5.666013101406544905e+00 8.975853773790994916e-01 -6.181367617492251609e-01 2.307619795269283181e+00 -2.937911826042545194e+00 1.305695967249574041e+00 3.492309820269403620e-01
2.000000000000000111e-01 1.035694418536738226e+01 -1.499123721272157095e+00 -8.444314752219590492e-01 5.960534514585297927e+00 -5.844221004290122146e-01 -4.076556894143362753e-01 -7.536403006720584496e-01 -1.568655641053418592e-01 -1.413495907973157106e-01
2.000000000000000111e-01 3.750942860078612995e+00 -2.307691305470305210e+00 -3.949628993413380140e+00 7.261759857432280585e-01 4.428988356699946616e-01 -1.098385329793007292e+00 1.119353522796681794e-01 2.620936284584423070e+00 4.785062303361312108e-01
2.000000000000000111e-01 2.046714192317312886e+00 2.205767913113444223e+01 -2.691028697630307676e+01 1.126113185331804933e+00 1.336440439966244753e+01 -1.616487253300367044e+01 2.322625098397875565e+00 9.424909421025224887e-01 3.856692653494809275e-01
2.000000000000000111e-01 -1.631243138009386229e+01 -1.482161745751636595e+01 1.645288008712014616e+01 -1.083639504755759297e+01 -9.825308850630866786e+00 1.045168762371599946e+01 -7.799893016850598104e-02 -3.623660123757801999e-01 9.463559795580524237e-02
2.000000000000000111e-01 5.996584827904652970e-01 8.486634260487783132e-01 -2.178068085622409278e+00 3.066267754070695961e+00 -2.014006995056825566e+00 -9.481139432916797505e-01 -2.822203611955039215e-01 -3.743734202435109598e-02 6.932200910895870427e-01
2.000000000000000111e-01 1.734423455722984508e+00 3.151765149861572191e+00 5.675301756896953265e+00 7.639935812792939984e+00 6.556769256230786880e+00 6.941017539234387357e+00 1.092051761507943697e+00 -1.776818162249802213e-01 -1.957260997796935964e+00
2.000000000000000111e-01 -5.265994871065433180e+00 4.934069420868786970e+00 5.220928909812728058e+00 -1.381926108880283222e+00 2.726875344280262681e+00 2.677817844233481015e+00 -1.664407931597272627e-01 -9.650068241224063481e-01 3.546644428898021451e-01
2.000000000000000111e-01 -3.467020734011712957e+00 -3.330842571590902246e+00 -2.926577258526760428e+00 -1.798165474343426329e+00 -5.264009723846516664e+00 -9.367659979524361802e+00 1.614489561108785332e-01 -5.663598480014984116e-01 -1.317715235282914538e-02
2.000000000000000111e-01 -8.720681641267294282e+00 1.321994504238642421e+01 2.081072556256792083e+01 -5.185832897881739179e+00 7.413699779514663746e+00 1.190744623998957330e+01 6.295661757179298323e-01 -1.537997823929941443e+00 3.874429109039332908e-01
2.000000000000000111e-01 -7.317053234636654580e-01 6.367809452765746947e-01 -1.328819658292204275e+00 2.970301941277862845e+00 -1.355425945062634252e+00 -1.437371660247271254e+00 1.218003542201554712e+00 2.790102563485865605e-01 -9.241176421201500180e-01
2.000000000000000111e-01 9.038928320542462258e-02 -6.778759080157359396e-01 -3.493567869913096202e-01 1.118238560030329865e+01 -1.065546490266358948e+00 -6.474160759368475127e+00 1.613871496129092753e+00 6.812046624892643676e-01 -6.590206085151249261e-03
2.000000000000000111e-01 -1.371219004128329644e+00 -4.441127592266237656e+00 -3.557990427455509863e+00 -1.388120270878901552e+00 3.699818512461287567e-01 -8.222130399437923565e-01 -5.432097655884298160e-01 8.423833018329252020e-01 -1.494328948952003411e-01
2.000000000000000111e-01 6.337395559703022485e+00 -4.660739570336144943e+00 -1.283866820035938083e+01 3.254339294734251098e+00 -9.374546162610434274e-01 -6.527222056792857607e+00 -8.719875287864491120e-02 -3.539668042882763155e-01 5.144601091997094144e-01
2.000000000000000111e-01 -6.987679941537007222e-01 -3.630660469425307513e-01 -3.265635557894242536e-01 8.192066567811593369e-01 -8.921155778005943060e-02 7.299101623724125076e+00 2.974928503074385500e-01 1.880010619296722807e-01 1.301228515883393833e+00
2.000000000000000111e-01 -1.381379488881740336e+00 -1.346060880421173223e-01 -2.096965944325461795e+00 9.213476533646089983e-01 2.632755818371913303e+00 -3.049860555301315390e+00 9.941663314276857899e-02 -1.730516482962342284e+00 1.597179739205750515e+00
2.000000000000000111e-01 -1.806642455642083478e+00 -1.844340179647871558e+00 -9.656047980146854615e-01 -2.484426318795319943e+00 -1.063233109952051780e+00 -4.012347481599157217e-02 3.571589793730877149e-01 5.647964869292386725e-01 -5.523340820094913006e-01
2.000000000000000111e-01 -5.228207478143827303e-02 -2.982078612636167136e+00 1.374851954830232259e+00 3.017089178670267380e+00 -2.548700546710017445e+00 1.047014804469988736e+00 -1.931708422166933392e-01 -5.189179524242124586e-01 -1.345254381590285479e-02
2.000000000000000111e-01 -3.309507598369163528e-01 -6.085905698779116024e-01 -1.612689363872345238e-02 -7.145716692755205379e+00 -2.565923622067455945e+00 8.953703189732795664e+00 -9.242347930784594601e-01 7.576997478856134505e-02 -1.392233521600583779e-01
2.000000000000000111e-01 -3.144710972214232125e+00 -1.141094453311697343e+00 -3.073383932651798656e+00 7.895150952820064738e-01 7.452159627652805707e-01 6.342235465342620226e-02 5.957694771162939107e-01 6.344032431227376589e-01 1.694406892158661637e-01
2.000000000000000111e-01 1.910584665157189832e+00 -1.161428836361369843e+00 5.903530263267080080e+00 1.281941913703945390e+00 5.407736376349657759e-01 1.302280192867014907e+00 -1.336421660492691510e+00 -7.612067198992983341e-01 -2.184442207875056940e-01
2.000000000000000111e-01 -2.082316046348004335e+01 1.148777338444487306e+01 1.637042498948039881e+00 -1.421892046535169740e+01 7.831194510715043577e+00 4.713883743300780194e-01 1.830918505940636765e+00 1.181604583309558532e+00 -1.100132766297575060e+00
2.000000000000000111e-01 1.551702514855889170e+01 -1.222418098976722156e+00 -1.836031551218675784e+00 9.223004364122630250e+00 -4.082511508133671030e-01 -1.020400006638836565e+00 4.857270106093193318e-01 7.824859205214137470e-01 6.107351836588704730e-01
2.000000000000000111e-01 4.144802054494117982e+00 2.305269270295639661e+00 -1.138235340506130289e+00 -2.111416687131604797e-01 3.202687210381419125e-01 8.502619263912101211e-01 -4.083798253849345583e-01 9.460632332611424999e-01 1.022129414245795065e+00
2.000000000000000111e-01 -1.267419183458610910e+01 -2.467318848775352791e+00 -1.029861044363916278e+01 -6.600874031887463467e+00 -1.009061816586261484e+00 -5.298949246391587486e+00 -2.107969015098144078e-02 4.127555384102606084e-02 1.096106413350836695e+00
2.000000000000000111e-01 -9.104563660006494141e-02 -6.425657629122463743e-03 -1.167556061757087482e+00 5.627154257238514701e-01 4.170365038344421293e+00 5.207067644374632209e+00 1.425218080926183295e-01 -2.681533460908795963e-01 1.418374357297791155e+00
2.000000000000000111e-01 2.975034147756567648e+01 -3.805409627996036992e+00 -1.682007078293202085e+01 1.688564311671298768e+01 -1.472608526488808023e+00 -8.868290518808283451e+00 -5.235611869307986721e-01 1.637598205090995407e-02 1.805484899473831950e+00
2.000000000000000111e-01 1.184488879484438595e+00 2.082656456877639339e+00 5.563646065634948457e+00 -2.841455418983275250e-01 2.723914702907535457e+00 3.012653284270848442e+00 -3.163202295495595173e-01 9.522321988995448294e-02 -9.461629756402882840e-01
2.000000000000000111e-01 -8.542408246777671854e-01 -1.103208331337366399e+00 -1.638275654006953186e+00 1.425124766499549001e+00 -2.296191987023975312e+00 2.220837910315457631e+00 4.174437476093765254e-01 -1.380181655339153934e+00 7.162574535250282315e-01
2.000000000000000111e-01 1.006464565414163026e+01 1.007984396932263671e+01 6.866714375710182949e+00 5.865394723457336035e+00 5.902236259211502301e+00 4.434564289400533710e+00 4.525296649238253477e-01 3.344140889732000188e-01 -8.236417003079894439e-01
2.000000000000000111e-01 -4.092901035724595715e+01 -5.787693289059505197e+00 -1.306164142820551355e+01 -2.353359423582642762e+01 -3.191537368961878229e+00 -7.850274062057096991e+00 9.444238424574774582e-01 -3.599042377706139217e-01 -1.177655621319875223e+00
2.000000000000000111e-01 1.326451388670740750e-01 -6.564944095165752280e-01 -1.222998724481399596e-01 -2.714467984560953173e+00 -1.130680811088262461e+00 -2.627414723094996685e+00 -7.094150650241234368e-01 -3.432787591816053863e-01 1.729752256166292357e+00
2.000000000000000111e-01 5.674973025998104603e+00 3.575917693758674964e+00 -8.923763687407353373e+00 1.916430409521189482e+00 1.787851700416749567e+00 -4.688697384354203912e+00 -1.396083541317549193e+00 8.191167938667391901e-01 -3.516869100966322215e-01
2.000000000000000111e-01 -1.333160981837923531e+00 -1.139420024810638421e-01 8.481798456063879499e+00 -6.101752691519203964e+00 -9.355363878416682155e+00 2.400302815356214481e+01 2.262981583088385928e-01 -7.784210350138612844e-01 -1.020055248432633954e+00
2.000000000000000111e-01 -6.593847081841194502e+00 -8.496174288378803396e+00 -2.027411913723464298e+00 -3.084974560495800322e+00 -3.297097552553189370e+00 -1.050907967257740827e+00 -1.144496758295514005e-01 5.738673722206977246e-01 1.563535298382324745e-01
2.000000000000000111e-01 2.239481391078368855e+00 1.918237246649768801e+00 3.545595413080604441e+00 -1.548525640149212901e+00 2.611291625949374140e+00 -5.443063556011703552e-01 8.956669621207787868e-01 -1.940213859434855470e+00 -4.546162688754084025e-01
2.000000000000000111e-01 -6.775535042963794830e+00 1.716947911218673628e+00 -2.208848977191622254e+01 -3.994870327537217936e+00 1.036452421776641319e+00 -1.228022293620788652e+01 1.287839676788305132e+00 1.211425043583911343e-01 -4.177786500589580343e-01
2.000000000000000111e-01 -1.637733413825431139e+00 -5.510817336236588648e-01 -7.356696877093640285e-01 -3.677971398220112764e+00 -3.384480167458686073e-01 8.423830760865251843e-01 1.645292458308862171e+00 6.000702075107278155e-01 -1.452035520500345012e+00
2.000000000000000111e-01 -1.105791768686082222e+01 -5.669560262580763954e+00 -3.707758136719769393e+00 -5.677340279063352035e+00 -2.725528772219747431e+00 -2.434498110798818171e+00 8.565027547425647647e-01 4.045933102233424949e-01 2.699203104838276412e-01
2.000000000000000111e-01 -1.407464242853460945e+00 -1.621050399920628937e+00 7.139415006124834484e+00 -2.272506607214554997e+00 3.708950887063354185e-01 2.042628026629980109e+00 1.079373184858595902e+00 1.168430214982944665e-01 2.078051804633141320e+00
2.000000000000000111e-01 -7.531679785441712793e-01 5.113606366953836746e-01 4.874303138780575750e-01 -1.388091335872279064e+00 -2.076264538772912616e+00 -9.419626480157908821e-01 -3.116156579120536452e-01 -9.656805898680476119e-01 1.049679311352054611e+00
2.000000000000000111e-01 4.108081350734716608e+01 1.043743516525270998e+01 1.462173073481604968e+00 2.348898807240824738e+01 6.128548977591628422e+00 4.955255187616964818e-01 -1.178040336042603387e-01 -1.359939040977154734e-01 2.226318798930941589e-01
2.000000000000000111e-01 1.984100623298697963e+00 -8.390407067585986312e+00 -7.624108597421805023e+00 -1.146517130467699097e-01 -4.828301868916265782e+00 -4.465559420725609741e+00 6.605003871932092485e-01 2.834908369412093565e-01 8.112638664168756453e-01
2.000000000000000111e-01 -2.578798689929516286e+01 1.020579535147107997e+01 1.983900138953787717e+01 -1.357617813458288047e+01 6.098114640004472342e+00 1.118654697915586915e+01 -9.524643725018940854e-01 1.203399519389974637e-01 -7.508942591848019044e-01
2.000000000000000111e-01 8.639681495133910705e-01 1.569165903038334253e-01 -1.123187098855149557e+00 -3.158174859166407167e+00 -2.554733313094855518e+00 -2.278292010457307892e+00 -8.714850382688268393e-01 -1.451128569074773278e-01 -4.430263072455225548e-01
2.000000000000000111e-01 3.218576406594277906e+00 3.773199368720084834e+01 -1.088442986070513641e+01 1.414362773814410446e+00 2.145961069413232636e+01 -5.696873849815243140e+00 6.653372657258510570e-01 -5.790713660383163264e-01 -9.607341965854655497e-01
2.000000000000000111e-01 -7.820192160520471614e-01 -1.012760075737350718e+00 -3.169373840301700079e-02 1.387198768278428807e+00 -3.439406548251543683e+00 1.436911345520825778e+00 -2.987053318640132127e-01 -6.339671642628654791e-01 -2.061552010098763432e+00
2.000000000000000111e-01 4.262994183390857117e+00 7.562103804746733715e+00 1.095431543006685771e-01 2.161023408528863765e+00 1.745374700075239538e+00 -9.492345075242006880e-01 -7.224952440073477700e-01 6.793649994325586805e-01 -6.342272416482459541e-01
2.000000000000000111e-01 -3.255580857761808944e-01 -2.941491379426736330e+00 -4.122562282350565432e+00 -1.100587334094740077e+00 1.852727267478141704e-01 6.902056890792827026e-01 -7.648265045724579325e-01 -5.277428730811927204e-01 -7.285606645227563627e-01
2.000000000000000111e-01 -2.307088383893353967e-01 -8.301524591577885692e-02 -8.205777453307092073e-02 -1.151022928857134975e+00 -3.659659261421825960e-01 -7.455331497270498708e-01 1.401336077286875259e+00 1.994418133751360456e+00 -2.493633451681860791e+00
2.000000000000000111e-01 -3.437753482171419517e+00 -1.420077385679431980e+00 -3.322016952644897270e+00 1.245244311988187969e+00 -1.559231341471124077e+00 2.758132846966607321e+00 -1.686947643786270434e-01 -1.112949139721709502e-01 1.785866028079163836e+00
2.000000000000000111e-01 -1.082582181908248398e+00 -1.604739639438680643e-01 1.218315154920263321e+00 9.578084027414786039e-01 2.152325363987690476e+00 -1.489898407351671339e-01 1.095186438311185118e+00 -2.027299091432454570e-01 -1.658432873299482635e+00
2.000000000000000111e-01 1.238314110262803913e+00 -1.175403949229019140e+00 5.755227504926705429e+00 9.630817699493872119e-01 1.374054353646805726e+00 4.354301368318517440e+00 -6.831357477726296423e-01 -3.446388259010521038e-01 -2.665593068137567245e-01
2.000000000000000111e-01 -5.825487292599037303e+00 -4.161937371100659533e+00 -2.893568039377950374e+00 -2.614693397084505211e+00 3.076691457120350193e-01 6.725908310611616869e-02 -1.592421874085047095e+00 1.156823731462514049e+00 1.069107359911631194e+00
2.000000000000000111e-01 -5.190224178136684685e+00 2.614939318291647830e+00 -2.766208225980792523e+00 -1.425528575899288830e+00 4.098522766919203142e-01 -1.310222944974879677e+00 -1.223310586007041900e+00 9.809448759719592292e-01 3.204576417922734843e-01
2.000000000000000111e-01 6.481188806028191918e-01 -7.112897424886686082e+00 -4.857409753233206118e+00 2.716706685532682131e-01 -2.003578168570785412e+00 -2.320965192899757223e+00 -2.235644314850002146e-01 -1.068210350058179214e+00 6.135394559233900424e-02
2.000000000000000111e-01 9.052219662104723952e+00 1.930629647847852182e+00 8.926962094400464620e-01 3.885150745397978334e+00 7.868241114404302960e-01 1.488283976235265094e+00 -1.979166230203300403e+00 1.097375253062042644e+00 -9.086383778499577124e-01
2.000000000000000111e-01 1.829383825198683811e+00 1.611842263786653628e+00 4.156210903716899274e+00 9.447631424406953415e-02 -1.970669877720043317e+00 2.983166417354021327e+00 -1.411618830972717564e+00 5.578939698536565794e-01 -4.266426693507894274e-01
2.000000000000000111e-01 1.042417266907233797e+00 9.967491357443259981e-01 2.125740835955952424e+00 8.290393641313016371e-01 1.066942585934919085e+00 -4.127154984503455526e-01 5.830791308948009011e-01 -1.849702544535568594e-01 1.763019130122224221e+00
2.000000000000000111e-01 3.564134448478668560e+01 8.386239243355648298e+00 -2.716318695094277302e+01 2.607583967410755221e+01 5.704380651375588585e+00 -1.990175730631863615e+01 -1.720659399611626839e+00 9.798266126681859367e-01 -5.723369920806001820e-01
2.000000000000000111e-01 1.290942230264689794e+00 4.069479723105176916e+00 -1.334544909416848224e+00 6.449484205793675429e+00 1.073405043867645148e+01 -2.372346130338965509e+01 -2.242880105773636057e+00 -1.565798704276393893e+00 -1.214715150843223290e-01
2.000000000000000111e-01 1.633318595708952659e+00 3.067966237868830631e-02 3.769413036192008182e+00 -2.293713768401183017e+00 2.432634868392632210e+00 3.424814224820424413e-01 4.655558135037913756e-03 -1.120947515242226161e-01 9.164997665003927763e-01
2.000000000000000111e-01 -9.909168353903139437e-01 -3.220457068858752159e+00 -3.218156284850145710e+00 1.549749057746667713e+00 -1.571721289806814248e+00 1.476537854000722350e+00 1.699226508802586522e-01 -6.679689897872609361e-02 -1.017354596041230852e-01
2.000000000000000111e-01 1.442330666998304167e+01 3.194464651927583443e+00 7.043896519170779413e+00 8.448462057316989515e+00 1.708517146162080280e+00 4.040197279164467581e+00 9.575996716961209243e-01 -3.800212820832296057e-01 -5.476042479688690845e-01
2.000000000000000111e-01 -7.162781271534531591e+00 -1.547319218447048961e+01 -2.775718011457902201e-01 -4.212800835032815883e+00 -8.948368104171660065e+00 -5.024246511557505235e-01 1.733335360229991018e+00 1.607423515250675505e+00 -1.463360001873950322e+00
2.000000000000000111e-01 -3.493837956102909370e+00 -1.075453530545501835e+01 -7.217832353365380094e+00 -2.419060902565907778e+00 -5.455931494631536260e+00 -2.310667830228809727e+00 -1.481259929826439725e+00 -5.562455566616666403e-01 6.364195616805071731e-01
2.000000000000000111e-01 -1.450467089876382287e+00 -2.324924451831507644e-01 -1.887161481987828626e+00 -3.335131055366523878e+00 1.765752995655544444e+00 -1.777664221223236307e-01 -1.069776904912365989e+00 9.217015482178823049e-01 5.922274772907178964e-01
2.000000000000000111e-01 1.084369204472417254e-02 4.951106784034891461e+00 8.161203763874642192e+00 3.816705658431344128e-01 9.314567177883431581e-01 3.133522694068900272e+00 7.915148001624806584e-01 -1.015363135660433791e+00 -8.048018562985213009e-01
2.000000000000000111e-01 2.342854239646228365e+01 7.494160172557807087e+00 -2.360069368950823687e+01 1.605472706858419230e+01 5.115662650270482281e+00 -1.648949583545303810e+01 1.082903688098803552e-01 -5.069023257663189952e-01 9.891051370425618661e-01
2.000000000000000111e-01 9.488848640299151427e+00 -5.442984830153926978e+00 -2.889664422888899242e+00 6.171072350348205227e+00 -2.870855163220641160e+00 -1.884689945489181451e+00 9.536227737899083401e-01 -1.137963513142421279e+00 -4.347659099736778110e-01
2.000000000000000111e-01 -1.871126117872401684e+00 -1.650256398622448772e+00 -8.920706300230587527e-01 3.382894747634205057e+00 -1.583270755692662402e+00 -1.014832908287930796e-01 -6.732880253705347817e-01 2.568116709601713232e-01 -1.128152052396058647e-01
2.000000000000000111e-01 -2.990437057218944261e-01 -1.195816453349338726e+00 -1.948952911408425637e+00 -2.374753941489434972e+00 6.198368290597950914e-01 3.291798668895417723e+00 2.992763546852804102e-01 -5.328473851187549570e-01 -1.297512116512353542e+00
2.000000000000000111e-01 1.376782933371192508e+00 -3.335686523902644390e-02 8.698366876279628457e+00 5.669643528987534653e-01 -1.438391876848628126e+00 4.629396689939776266e+00 5.847261847852484040e-01 -9.341694633415285054e-01 1.877333420170706590e+00
2.000000000000000111e-01 -1.397591057958822214e+00 2.862872571933655408e+00 3.686199914477830575e+00 -1.467693462716157082e+00 1.758075898692671002e+00 -1.349509007145154982e+00 4.795365590435126668e-01 6.818718284222321513e-01 -5.250361889456554021e-01
2.000000000000000111e-01 3.466382198430394634e+00 -1.007055769052763727e+00 -2.284445302782932341e+00 6.396238962668676642e-01 1.610351869320234830e-01 -1.577546868896523291e+00 9.645143198464114498e-01 4.682952647395684509e-01 3.107797749933667864e-01
2.000000000000000111e-01 -1.101507089114266424e+00 -8.773888084057895886e-01 -1.451485209906858254e+00 -1.885006832877698546e+00 -3.758447006724320971e+00 6.623247582273976697e-01 -7.817659407701461616e-01 1.594335185503471530e+00 1.721765692341389320e+00
2.000000000000000111e-01 -6.143376926570242702e+00 -1.613673248852680375e+00 -3.771680203582642665e+00 -2.520408295547969857e+00 -4.380192664099528121e-01 -2.969463055994821854e+00 -1.439414282393020494e+00 1.777630996610942260e+00 -3.724604661493456925e-01
2.000000000000000111e-01 9.666771390415640486e-01 3.394337471519477401e+00 8.880051424843488306e+00 -9.686237671396248361e-01 9.849491593109740428e-01 4.336461600491658963e+00 -1.938215621452891391e+00 -6.327112457936556744e-02 1.103146849808664287e+00
2.000000000000000111e-01 -1.142994839626301884e+00 -3.814679639579911186e+00 -5.710295563630209958e-01 5.641221489172578707e-01 1.158693551307671932e+00 -3.641231595860511039e+00 -6.640342753126907693e-01 -4.956786245842724203e-01 1.591482884198499592e+00
2.000000000000000111e-01 -3.129127914527539134e-01 -5.124632466060830005e+00 1.271585877154274691e+01 -3.779342467074575662e-01 -1.714625739668671267e+00 6.583339655500266119e+00 2.746750731775911558e-01 -4.907863013043615164e-01 -7.109935330655287045e-01
2.000000000000000111e-01 1.405147880138359895e+00 -5.846817583320936151e+00 1.978459712211635591e+01 -4.300982066824471373e-02 -4.033019610132305033e+00 1.400128308746281824e+01 1.176877925213579978e-01 1.227415732175720919e-01 -8.556183829225534332e-01
2.000000000000000111e-01 -2.221111604344267576e+00 3.542879119528781762e-01 2.006577510467476788e+00 -7.068730506470554120e-01 -1.423556393490451877e-01 4.300239262795500395e+00 1.299762502845322132e+00 -1.351280231070889626e-01 1.318074112029440803e+00
2.000000000000000111e-01 -4.137936597944897876e-01 -1.124290810373272365e+01 1.540008885441930486e+00 -8.437302826752254292e-01 -6.087232849140820967e+00 1.083936420019443014e+00 -7.681547079383016507e-01 3.254067364212411273e-01 4.054419149060385641e-02
2.000000000000000111e-01 2.793125097027335801e-01 1.326921448606249054e+00 8.799192656627807807e-01 5.841972606505586585e-01 -3.614750650822028177e+00 3.915884008374324876e-02 -1.180614442082631235e-02 -1.495239641433372180e+00 4.810501795975972161e-01
2.000000000000000111e-01 -9.139573394513340610e-01 -4.951584019552706661e-01 -1.074637028231155034e+00 -2.973419176004768349e+00 -2.789501424214363645e+00 -3.371993419224609267e-01 2.076422368118658213e+00 -8.757048250047075877e-01 -6.108924061946308104e-01
2.000000000000000111e-01 8.789642584758526667e+00 -5.754036559142949869e+00 1.375903801724595787e+01 4.245200292537760767e+00 -2.501566149397489003e+00 7.901579744656729964e+00 -8.641747394930455739e-01 8.021400794108747290e-01 -3.456058189353753418e-01
2.000000000000000111e-01 8.370363887441865103e+00 -3.923037077023642905e+00 6.299562366400622615e+00 4.184965412220898351e+00 -7.422154305023686005e-01 2.631517890134262405e+00 3.204707377370521471e-01 3.685896668600501247e-01 -1.308636580605316846e+00
2.000000000000000111e-01 -3.831493734494509695e+00 2.754563770180816551e+00 -2.655248247126268879e+01 -3.611992933355491875e+00 1.533804419738997948e+00 -1.820876793451650855e+01 8.395407107930650259e-01 -1.097577593934054407e+00 -2.811400118188451258e-01
