# Total Kinetic Energy: 108181.51880388442 J
# Total Potential Energy: -423.39121745230693 J
# Total Energy: 107758.1275864321 J
# mass x y z vx vy vz ax ay az
2.000000000000000111e-01 6.126622421266526564e-01 -9.171896372086258964e-01 2.210741484203278429e+00 1.398327638882961743e+00 -1.572318146872769606e+00 3.989637513644090028e+00 -8.966043962736165440e-01 6.963139999641968503e-01 -4.318718804335897610e-01
2.000000000000000111e-01 7.908181558099134367e-01 4.260751577259911826e+00 1.543488252331273181e+00 1.053508025967837103e+00 4.579173124080587520e+00 2.714576701959759752e+00 -8.638420432590800946e-01 7.477608111009810266e-01 -8.297878829518955390e-01
2.000000000000000111e-01 -7.666847607764855077e-01 9.428807348164175428e-01 5.266485253444100678e+00 -4.099744980861763644e-01 8.408648828427687238e-01 7.614839486845985661e+00 9.641895495286434414e-01 -7.350472763951455546e-01 1.373103499606344924e+00
2.000000000000000111e-01 1.579818662744969293e+00 7.105607194885311673e-01 3.236083687481829951e+00 1.514131674759314539e+00 1.356938641905224952e+00 -6.489434135094285239e-01 -5.460842563394595617e-01 -1.562379614909943371e+00 1.380396280783603880e+00
2.000000000000000111e-01 4.747888945924619297e-01 2.489890013967842042e-01 6.469170539642946638e-01 -1.125738868040275342e+00 -4.869392397909647840e+00 1.778167380167871681e+00 8.297013594807493009e-01 2.265106253250432911e+00 9.937754100366300372e-03
2.000000000000000111e-01 -8.353862482514154308e+00 -1.917741215105018071e+01 5.662461916223135105e+00 -1.075260644698308532e+01 -2.210048656220742558e+01 7.509860303195644349e+00 5.503421260199654018e-03 -6.324108284545006953e-01 -1.983938834140225038e-01
2.000000000000000111e-01 -7.032354794118071961e-01 -3.238995483606881276e-01 -1.263848317500110952e+00 4.115410424405263612e+00 3.776102319097562887e+00 -1.193022792181382741e+00 1.185290918075305733e+00 1.180817650969794297e+00 4.342061600991873882e-01
2.000000000000000111e-01 1.639436589380846243e+00 2.843671691839948057e+00 3.399998751126851015e+00 3.367746188358222148e-01 2.876346155598060061e+00 3.831589712302664541e+00 6.301270386930696299e-01 -1.153803380428851000e+00 -5.839674396223903247e-02
2.000000000000000111e-01 1.824335562315411163e+00 -9.681048758312225111e-01 5.269040187446144330e+00 -6.851291527735819953e-01 3.337855199307642740e-01 5.550832046697058431e+00 4.819874889720659472e-01 6.233897045599963160e-01 7.806367264006173201e-01
2.000000000000000111e-01 -2.588511070254927660e+00 -4.433675048916795092e+00 -5.668633495368611719e+00 -3.057676861867155704e+00 -4.668421563301599519e+00 -6.400960545254811507e+00 -5.073469463042808991e-01 -1.432177634536540234e+00 -5.631686098712457289e-01
2.000000000000000111e-01 -7.330012419942663060e-01 -9.037401961339291620e-03 -2.427190081850841619e+00 -2.794580804244772843e+00 1.146324214422085319e+00 2.104419248348739391e+00 1.112131061580115432e+00 -1.326002105085030414e-01 1.219961580377953547e+00
2.000000000000000111e-01 -8.625910214230945172e+00 -1.101720536917031534e+00 7.648028376524456107e+00 -2.249915165255706739e+01 -4.477023537992367963e+00 1.965587418572678757e+01 2.699041547263745788e-01 1.989345446514553695e+00 -2.737681246386168277e-01
2.000000000000000111e-01 -2.549860951037204781e+00 2.238112246208074030e+00 2.791563288939426180e+00 -9.014550910671416117e-01 6.929241591322052862e-01 4.189336881281286118e+00 -2.937911826042545194e+00 1.305695967249574041e+00 3.492309820269403620e-01
2.000000000000000111e-01 4.229737758473548048e+00 -8.372586741818867084e-01 -3.929182350859477535e-01 7.817161254401692183e+00 -9.817175295926918732e-01 -6.026863206464022626e-01 -7.536403006720584496e-01 -1.568655641053418592e-01 -1.413495907973157106e-01
2.000000000000000111e-01 2.174101929770510200e+00 -2.220805880460128279e+00 -2.164381843904929159e+00 2.965735571053421005e+00 -8.393872788645535543e-01 -2.921568861382333626e+00 1.119353522796681794e-01 2.620936284584423070e+00 4.785062303361312108e-01
2.000000000000000111e-01 1.006722048747656917e+00 9.696838896226854132e+00 -1.196450040030765294e+01 1.137859904453092597e+00 1.355917514289251713e+01 -1.638456135686420012e+01 2.322625098397875565e+00 9.424909421025224887e-01 3.856692653494809275e-01
2.000000000000000111e-01 -6.242377775445167032e+00 -5.689228491634403362e+00 6.738461885272537977e+00 -1.114532188353374309e+01 -1.011374635147201317e+01 1.075958169066067072e+01 -7.799893016850598104e-02 -3.623660123757801999e-01 9.463559795580524237e-02
2.000000000000000111e-01 -8.819493992397897664e-01 -6.146568497790014796e-01 -1.102753390489003005e+00 -3.991317216340709795e+00 5.869906959071944375e-01 3.892390216743333298e+00 -2.822203611955039215e-01 -3.743734202435109598e-02 6.932200910895870427e-01
2.000000000000000111e-01 -1.898130975079420191e+00 -2.520254176249660527e-01 1.247098610754611814e+00 -2.160066354667275590e+00 -1.741275897465996980e+00 4.630517727918081583e+00 1.092051761507943697e+00 -1.776818162249802213e-01 -1.957260997796935964e+00
2.000000000000000111e-01 -3.223070054953522057e+00 1.876991572857662494e+00 2.457991531048167033e+00 -3.730329706779992094e+00 4.088817928232562515e+00 3.403925153375471968e+00 -1.664407931597272627e-01 -9.650068241224063481e-01 3.546644428898021451e-01
2.000000000000000111e-01 -1.851149664479135426e+00 -2.139390843085706428e-01 1.362169181205353796e+00 -1.253962905739931744e+00 1.267604164008264034e+00 -2.997749163687279950e-01 1.614489561108785332e-01 -5.663598480014984116e-01 -1.317715235282914538e-02
2.000000000000000111e-01 -3.891346383467913839e+00 6.301410982613494305e+00 9.722179492573483017e+00 -5.353635386140775942e+00 7.698055920429506926e+00 1.229452973419409645e+01 6.295661757179298323e-01 -1.537997823929941443e+00 3.874429109039332908e-01
2.000000000000000111e-01 1.113883985265020082e-01 5.081433846195104048e-02 -7.386516321608348479e-01 -1.381664716966275908e+00 1.074628884931535300e+00 6.765335461258863425e-01 1.218003542201554712e+00 2.790102563485865605e-01 -9.241176421201500180e-01
2.000000000000000111e-01 -1.438089188644719574e+00 6.145854663791892047e-01 6.913696446488375169e-02 -1.656518214178320791e+00 -3.225760564267212693e+00 -1.279635750727202481e+00 1.613871496129092753e+00 6.812046624892643676e-01 -6.590206085151249261e-03
2.000000000000000111e-01 2.557770576566887472e-02 -3.300025575133537448e+00 -2.223953901668248800e+00 -1.554474200546413165e+00 -2.883426511214778554e+00 -1.963050595450764435e+00 -5.432097655884298160e-01 8.423833018329252020e-01 -1.494328948952003411e-01
2.000000000000000111e-01 3.155088151162256160e+00 -3.684313833713801944e+00 -6.482575291449910182e+00 3.780107484219427771e+00 -1.293956459492651367e+00 -7.490162047332479034e+00 -8.719875287864491120e-02 -3.539668042882763155e-01 5.144601091997094144e-01
2.000000000000000111e-01 -1.231855559592412108e+00 -6.939800827863812360e-01 -2.032838608378122025e+00 -1.125556292081708376e+00 -1.768488739601121740e-01 -3.297200924446447523e+00 2.974928503074385500e-01 1.880010619296722807e-01 1.301228515883393833e+00
2.000000000000000111e-01 7.011145445409888710e-02 4.781637097528687042e-01 -7.148304686248108109e-02 -1.386138635595774105e+00 -1.641314255454727089e+00 -5.043788165979212756e+00 9.941663314276857899e-02 -1.730516482962342284e+00 1.597179739205750515e+00
2.000000000000000111e-01 1.108211688415960516e+00 3.667105523933431727e-02 -7.419182873019537494e-01 -6.305073436591741576e-01 1.024769652758649174e+00 -1.255898533920688287e+00 3.571589793730877149e-01 5.647964869292386725e-01 -5.523340820094913006e-01
2.000000000000000111e-01 -1.066605304898983420e+00 2.609979668833237731e-01 -5.375699865702835423e-01 -2.879359019694869737e+00 1.492291828861853908e-01 2.666015856128028938e-01 -1.931708422166933392e-01 -5.189179524242124586e-01 -1.345254381590285479e-02
2.000000000000000111e-01 -3.210759776051455572e-02 -2.219139234216263579e-01 -7.078479939192016124e-01 -4.180236799420747218e+00 -1.930661349381178393e+00 -3.049801887759065799e+00 -9.242347930784594601e-01 7.576997478856134505e-02 -1.392233521600583779e-01
2.000000000000000111e-01 -3.140675730969164192e+00 -1.414626859219796140e+00 -3.086274320510444369e+00 -1.821451236332947810e+00 -7.075250333862411756e-01 -1.016820978494972216e+00 5.957694771162939107e-01 6.344032431227376589e-01 1.694406892158661637e-01
2.000000000000000111e-01 -9.861174943892669909e-02 -9.160161171798558710e-01 2.865385409858068666e+00 1.808582886295117209e+00 -1.775383195073848785e+00 5.491359278262932797e+00 -1.336421660492691510e+00 -7.612067198992983341e-01 -2.184442207875056940e-01
2.000000000000000111e-01 -7.563427886705264669e+00 4.174493042514609620e+00 1.194416471166738658e+00 -1.478338205609495226e+01 8.175912661499356915e+00 5.096258940275990579e-01 1.830918505940636765e+00 1.181604583309558532e+00 -1.100132766297575060e+00
2.000000000000000111e-01 6.578216941179564792e+00 -8.138868714499766233e-01 -8.187143439841046977e-01 1.056594009234828313e+01 -5.345159589184513838e-01 -1.248820842591775060e+00 4.857270106093193318e-01 7.824859205214137470e-01 6.107351836588704730e-01
2.000000000000000111e-01 3.297228070640715103e+00 1.355450822102532094e+00 -1.483714363804736314e+00 2.309159931847312386e+00 1.901708103329514010e+00 -3.415557052547324446e-01 -4.083798253849345583e-01 9.460632332611424999e-01 1.022129414245795065e+00
2.000000000000000111e-01 -6.298859981111666784e+00 -1.526120011433930390e+00 -5.183482599949164715e+00 -7.471466259905056084e+00 -1.057300133839926826e+00 -5.975378078017392625e+00 -2.107969015098144078e-02 4.127555384102606084e-02 1.096106413350836695e+00
2.000000000000000111e-01 -2.047257563955903414e+00 -1.833911377886455085e+00 -2.033305303496104166e+00 1.179730123685267751e+00 -8.753043387488791405e-01 -1.110865211386539597e+00 1.425218080926183295e-01 -2.681533460908795963e-01 1.418374357297791155e+00
2.000000000000000111e-01 1.412825675932756653e+01 -2.428783801419233335e+00 -8.615284587086609491e+00 1.713790212270308544e+01 -1.539431381916513297e+00 -9.003310642810269826e+00 -5.235611869307986721e-01 1.637598205090995407e-02 1.805484899473831950e+00
2.000000000000000111e-01 8.067096847294756845e-01 -4.082217426144116867e-01 1.269480777163139340e+00 2.937246609210920401e+00 2.349682415597168728e+00 7.817943697571612560e+00 -3.163202295495595173e-01 9.522321988995448294e-02 -9.461629756402882840e-01
2.000000000000000111e-01 -1.104111284456176900e+00 -5.883447065537453780e-01 1.244216321251644830e+00 -1.381717186811251441e+00 2.335616511763735303e+00 -1.916573884283989893e+00 4.174437476093765254e-01 -1.380181655339153934e+00 7.162574535250282315e-01
2.000000000000000111e-01 4.386367495884169188e+00 4.336444856191636887e+00 2.643624336761610127e+00 6.720308556340780726e+00 6.831640025279958728e+00 4.841966728962708189e+00 4.525296649238253477e-01 3.344140889732000188e-01 -8.236417003079894439e-01
2.000000000000000111e-01 -1.921413462380342096e+01 -2.843510089904877525e+00 -5.818612138438117753e+00 -2.371942251549863911e+01 -3.214673740621464493e+00 -7.909482116455950340e+00 9.444238424574774582e-01 -3.599042377706139217e-01 -1.177655621319875223e+00
2.000000000000000111e-01 -2.198110584515843069e+00 2.588203318061210179e-01 -1.318076111010708429e+00 8.246413334438736920e-01 -1.540952634547821387e-01 -1.108157170094371674e-01 -7.094150650241234368e-01 -3.432787591816053863e-01 1.729752256166292357e+00
2.000000000000000111e-01 3.620947665756601097e+00 1.695850942128336092e+00 -4.163301157992790991e+00 2.763491078197864770e+00 2.432892516508973202e+00 -5.920136685132506571e+00 -1.396083541317549193e+00 8.191167938667391901e-01 -3.516869100966322215e-01
2.000000000000000111e-01 2.778546085950635014e-01 3.267222901533293755e-01 3.006999586050852269e+00 -1.365476368168739185e+00 3.640097463387687693e+00 -3.032191356742420241e-01 2.262981583088385928e-01 -7.784210350138612844e-01 -1.020055248432633954e+00
2.000000000000000111e-01 -3.346811077221754083e+00 -4.896244672684414212e+00 -1.049714540872636492e+00 -4.170892279580661111e+00 -4.821617534319517340e+00 -1.051772120703171387e+00 -1.144496758295514005e-01 5.738673722206977246e-01 1.563535298382324745e-01
2.000000000000000111e-01 1.596738477617430263e+00 5.379357536689851615e-01 3.340084268210401053e+00 4.367530137441301363e+00 2.671784391372874712e+00 3.026635668021296244e+00 8.956669621207787868e-01 -1.940213859434855470e+00 -4.546162688754084025e-01
2.000000000000000111e-01 -2.999912848333270432e+00 7.475761957789949230e-01 -1.062687765819329044e+01 -4.294498180216292482e+00 1.082744529768152608e+00 -1.279496582032470009e+01 1.287839676788305132e+00 1.211425043583911343e-01 -4.177786500589580343e-01
2.000000000000000111e-01 7.989106505824707938e-01 7.947871946272606625e-01 -1.560801934223130960e+00 2.185809673296962963e+00 -1.594764705913972735e-01 -1.529487339729133311e+00 1.645292458308862171e+00 6.000702075107278155e-01 -1.452035520500345012e+00
2.000000000000000111e-01 -5.271278792487978926e+00 -2.955866263043646747e+00 -1.370427970189489253e+00 -7.266865504465449099e+00 -3.316918881129105934e+00 -2.654082941599670953e+00 8.565027547425647647e-01 4.045933102233424949e-01 2.699203104838276412e-01
2.000000000000000111e-01 1.183314306892272239e+00 -1.241819227888174559e+00 4.267841952341645317e+00 -3.076844602805843820e+00 -1.563953013447829443e+00 4.765659513646492762e+00 1.079373184858595902e+00 1.168430214982944665e-01 2.078051804633141320e+00
2.000000000000000111e-01 9.278440444487889849e-02 -4.434473748759327205e-01 -6.247403779381538458e-01 1.937960346548508461e+00 9.252425509497272937e-01 1.516103414405014949e+00 -3.116156579120536452e-01 -9.656805898680476119e-01 1.049679311352054611e+00
2.000000000000000111e-01 1.940264766199435442e+01 4.780715729653659984e+00 1.000965459912342981e+00 2.368648027820787760e+01 6.181511741824592399e+00 5.113790071929512626e-01 -1.178040336042603387e-01 -1.359939040977154734e-01 2.226318798930941589e-01
2.000000000000000111e-01 1.771941266939083048e+00 -3.447638209695844669e+00 -2.999686651124634285e+00 9.061468664574403586e-01 -6.262689822835535658e+00 -5.889172465569838089e+00 6.605003871932092485e-01 2.834908369412093565e-01 8.112638664168756453e-01
2.000000000000000111e-01 -1.321755224609744417e+01 4.559313393739862441e+00 9.491693113124487269e+00 -1.380722045978864898e+01 6.199188919098546968e+00 1.134464752814651867e+01 -9.524643725018940854e-01 1.203399519389974637e-01 -7.508942591848019044e-01
2.000000000000000111e-01 1.717717757800435008e+00 1.011542515880372362e+00 6.151587331146991522e-01 1.688021855816492334e+00 5.192937363728226119e-01 -1.645497437369741078e+00 -8.714850382688268393e-01 -1.451128569074773278e-01 -4.430263072455225548e-01
2.000000000000000111e-01 1.912078789743155927e+00 1.791650281796199096e+01 -5.624202769654208289e+00 1.430272505755734391e+00 2.166834211836111024e+01 -5.752585579024636075e+00 6.653372657258510570e-01 -5.790713660383163264e-01 -9.607341965854655497e-01
2.000000000000000111e-01 -3.280013565124067498e-01 4.684091894873398387e-01 -1.775919965791310728e+00 -1.411526992306643358e+00 4.051371000382506971e+00 -2.060776606961225443e+00 -2.987053318640132127e-01 -6.339671642628654791e-01 -2.061552010098763432e+00
2.000000000000000111e-01 1.945347629898183994e+00 5.242543527544770932e+00 1.112870194298738236e+00 2.991720780604267382e+00 3.670073659066123817e+00 -1.244217573570269186e+00 -7.224952440073477700e-01 6.793649994325586805e-01 -6.342272416482459541e-01
2.000000000000000111e-01 5.423197296834393610e-02 -2.389683095803242896e+00 -3.130138831212880390e+00 1.571774933486901060e-01 -1.558253602755868439e+00 -2.979677496072379306e+00 -7.648265045724579325e-01 -5.277428730811927204e-01 -7.285606645227563627e-01
2.000000000000000111e-01 -2.478382561702194842e-01 6.361143470049617221e-01 -1.540968047642375049e+00 2.401040817595340826e+00 -3.616705662479763550e+00 -2.572736392625013302e+00 1.401336077286875259e+00 1.994418133751360456e+00 -2.493633451681860791e+00
2.000000000000000111e-01 -2.801550236721219278e+00 -3.910457431658461158e-01 -3.287513576765014545e+00 -2.360823171774500739e+00 -1.532779652883355104e-01 -2.290710686475911473e+00 -1.686947643786270434e-01 -1.112949139721709502e-01 1.785866028079163836e+00
2.000000000000000111e-01 -1.150516448928991187e+00 -7.363736834465784975e-01 -1.522831868341735229e+00 -1.523781575649557851e+00 -3.700242516876286913e+00 4.256395698365695424e+00 1.095186438311185118e+00 -2.027299091432454570e-01 -1.658432873299482635e+00
2.000000000000000111e-01 7.831802822174337431e-01 -1.491812421879080142e-01 1.217600075475067989e+00 5.093219953425270896e-01 -3.466129791542114980e+00 3.367962980373433002e+00 -6.831357477726296423e-01 -3.446388259010521038e-01 -2.665593068137567245e-01
2.000000000000000111e-01 -2.627998874092268178e+00 -3.744258553704326253e+00 -2.624620954016693375e+00 -4.413152887983561534e+00 -1.526795359064685886e+00 -8.384055719874105028e-01 -1.592421874085047095e+00 1.156823731462514049e+00 1.069107359911631194e+00
2.000000000000000111e-01 -2.887929588036559192e+00 1.424931188789250180e+00 -1.149192300274225698e+00 -4.184148614154691082e+00 2.647344620336133492e+00 -2.312371500701031035e+00 -1.223310586007041900e+00 9.809448759719592292e-01 3.204576417922734843e-01
2.000000000000000111e-01 2.181929209485123367e-01 -4.414204310377520812e+00 -2.380910892133814905e+00 7.138662514750004906e-01 -4.449487946811931494e+00 -3.160741107145724982e+00 -2.235644314850002146e-01 -1.068210350058179214e+00 6.135394559233900424e-02
2.000000000000000111e-01 4.778978236313228045e+00 9.680996960335294110e-01 -4.678402851223893433e-01 5.834572773733833984e+00 1.464071404023312706e+00 1.411109194512755849e+00 -1.979166230203300403e+00 1.097375253062042644e+00 -9.086383778499577124e-01
2.000000000000000111e-01 2.146288159612361746e+00 1.744938355199316948e+00 8.548120998646157043e-01 9.379964389098338629e-01 1.891638470051962173e+00 3.695535849327236555e+00 -1.411618830972717564e+00 5.578939698536565794e-01 -4.266426693507894274e-01
2.000000000000000111e-01 -1.894633898174048481e-01 -1.369743653965748431e-01 1.866616717165906048e+00 9.089088884518666811e-01 1.443719707491514903e+00 1.475376390104067736e+00 5.830791308948009011e-01 -1.849702544535568594e-01 1.763019130122224221e+00
2.000000000000000111e-01 1.158409147179220966e+01 3.118172478797766267e+00 -8.804583237990158295e+00 2.630550354591552065e+01 5.775759866772057549e+00 -2.006245131487849420e+01 -1.720659399611626839e+00 9.798266126681859367e-01 -5.723369920806001820e-01
2.000000000000000111e-01 3.152161516234252003e-01 5.523261963971667354e-01 3.492590536684483382e+00 -2.565621352949348122e+00 1.049011159194751741e+00 1.271393489391306142e+00 -2.242880105773636057e+00 -1.565798704276393893e+00 -1.214715150843223290e-01
2.000000000000000111e-01 2.294809543286978393e+00 -1.567302768633946464e+00 2.975708561093076909e+00 1.219506479262705279e+00 6.236496175984320711e-01 1.670509457509672835e+00 4.655558135037913756e-03 -1.120947515242226161e-01 9.164997665003927763e-01
2.000000000000000111e-01 -1.895448538731926869e+00 -8.320095274643708461e-01 -3.094448975875888852e+00 2.321716279041010911e-01 -3.547782744346481110e+00 -2.700000793957488820e+00 1.699226508802586522e-01 -6.679689897872609361e-02 -1.017354596041230852e-01
2.000000000000000111e-01 6.278680798932229301e+00 1.537537212697050126e+00 3.168953668952231517e+00 9.543727114070554407e+00 1.961324190917156374e+00 4.500084070864676988e+00 9.575996716961209243e-01 -3.800212820832296057e-01 -5.476042479688690845e-01
2.000000000000000111e-01 -3.127022502939578619e+00 -6.871214744308515421e+00 1.526420475383422348e-01 -4.671684124679096328e+00 -1.003820424738461448e+01 -3.813610172933095677e-01 1.733335360229991018e+00 1.607423515250675505e+00 -1.463360001873950322e+00
2.000000000000000111e-01 -1.175035637773938602e+00 -5.262332239778318765e+00 -4.801496903737736410e+00 -2.608825801351382978e+00 -6.753102343820607700e+00 -3.155168660871195740e+00 -1.481259929826439725e+00 -5.562455566616666403e-01 6.364195616805071731e-01
2.000000000000000111e-01 -3.590590928558523576e-02 2.745645820608695331e-01 -1.516506949769690915e-01 -1.320683498004075140e+00 1.180473897402049693e-01 2.878770333849753449e+00 -1.069776904912365989e+00 9.217015482178823049e-01 5.922274772907178964e-01
2.000000000000000111e-01 -7.030580123845533991e-02 3.228341986003939290e+00 4.557646340281576336e+00 -2.694237387750382795e-01 3.069147594953229863e+00 4.986864518919784217e+00 7.915148001624806584e-01 -1.015363135660433791e+00 -8.048018562985213009e-01
2.000000000000000111e-01 8.593057364363785311e+00 2.756873554346980004e+00 -8.352496993137680903e+00 1.625690432281052367e+01 5.213326504952100038e+00 -1.673472488922147150e+01 1.082903688098803552e-01 -5.069023257663189952e-01 9.891051370425618661e-01
2.000000000000000111e-01 3.279561997418623420e+00 -2.418482110137576857e+00 -9.939314367150205998e-01 7.765040694164090596e+00 -4.044906087453668420e+00 -2.293040199574555960e+00 9.536227737899083401e-01 -1.137963513142421279e+00 -4.347659099736778110e-01
2.000000000000000111e-01 6.107386366571420089e-01 2.605959650753579895e-02 1.179470516727245261e-01 -4.489046673514226704e+00 -2.064384139952725850e+00 -7.793443186150104118e-01 -6.732880253705347817e-01 2.568116709601713232e-01 -1.128152052396058647e-01
2.000000000000000111e-01 -6.368978310168165180e-01 -1.786458624923186744e-01 -1.495671028225016297e+00 2.251917294093098487e+00 -2.488020316694478762e+00 -3.842139318741891962e+00 2.992763546852804102e-01 -5.328473851187549570e-01 -1.297512116512353542e+00
2.000000000000000111e-01 2.765517332299085584e-01 7.944378826066693655e-01 3.406349941846006146e+00 1.452557371187776614e+00 1.122103840587310497e+00 8.918765754971087034e+00 5.847261847852484040e-01 -9.341694633415285054e-01 1.877333420170706590e+00
2.000000000000000111e-01 8.306236520187868511e-01 -2.919164838240096566e-02 3.247587770434517296e+00 -1.826858851616723456e+00 3.459605349742362446e+00 3.681606911227413459e+00 4.795365590435126668e-01 6.818718284222321513e-01 -5.250361889456554021e-01
2.000000000000000111e-01 1.187578698229029728e+00 -6.825890608426878892e-01 -3.402187523459620500e-01 5.347779659979007505e+00 -1.744157523561586043e+00 -2.628921047873672645e+00 9.645143198464114498e-01 4.682952647395684509e-01 3.107797749933667864e-01
2.000000000000000111e-01 -3.800160321602349955e-01 2.791364773169955349e-01 1.321001975382514737e-01 5.030430185048389902e+00 -3.180776972698713845e+00 -1.289176523845531275e+00 -7.817659407701461616e-01 1.594335185503471530e+00 1.721765692341389320e+00
2.000000000000000111e-01 -2.317061071100724234e+00 -1.062385381552102492e+00 -7.275933200226958331e-01 -6.711057898550699008e+00 -1.279467938559146534e+00 -3.346059355908031829e+00 -1.439414282393020494e+00 1.777630996610942260e+00 -3.724604661493456925e-01
2.000000000000000111e-01 1.534208696221337487e+00 2.019236596109624138e+00 3.812274516475100405e+00 -1.365211132307921765e-02 2.351505960715847721e+00 7.189925937438961689e+00 -1.938215621452891391e+00 -6.327112457936556744e-02 1.103146849808664287e+00
2.000000000000000111e-01 -1.348346285302742364e+00 -3.018463378278859022e+00 2.304630884719460315e+00 -3.573575808172413382e-01 -2.716062629497279168e+00 -2.362017889036225782e+00 -6.640342753126907693e-01 -4.956786245842724203e-01 1.591482884198499592e+00
2.000000000000000111e-01 1.020677297610357026e-01 -3.237078658467998249e+00 6.212590277559518981e+00 -6.187824615119741356e-01 -2.632318087902059567e+00 7.790690576171290793e+00 2.746750731775911558e-01 -4.907863013043615164e-01 -7.109935330655287045e-01
2.000000000000000111e-01 1.407002620699352224e+00 -2.026499862708489808e+00 6.542171477633875298e+00 1.340832711196734139e-01 -4.390174241482799999e+00 1.521420061777721600e+01 1.176877925213579978e-01 1.227415732175720919e-01 -8.556183829225534332e-01
2.000000000000000111e-01 -3.991199348497075777e-03 -4.056798288848698641e-01 -2.442732323837744524e+00 -2.435778815448252033e+00 2.117581950627640985e+00 3.950673563419672685e-01 1.299762502845322132e+00 -1.351280231070889626e-01 1.318074112029440803e+00
2.000000000000000111e-01 3.164834305405621051e-01 -5.013365811097936664e+00 4.115464453166627345e-01 -6.800761372281280970e-01 -7.869799240891452996e+00 1.445618636118213507e+00 -7.681547079383016507e-01 3.254067364212411273e-01 4.054419149060385641e-02
2.000000000000000111e-01 -4.834528721323683720e-01 2.279736421233298671e+00 4.206885321748319306e-01 6.196451507816095328e-01 1.893516388338411183e+00 8.195497480482005770e-01 -1.180614442082631235e-02 -1.495239641433372180e+00 4.810501795975972161e-01
2.000000000000000111e-01 -3.829546006841842432e-01 4.395142458075629310e-01 -2.422539808276500672e-01 2.431476416960452802e+00 3.581856140794340559e-01 2.564045068696030771e+00 2.076422368118658213e+00 -8.757048250047075877e-01 -6.108924061946308104e-01
2.000000000000000111e-01 4.659359987292027050e+00 -3.297134472412389883e+00 6.212099007336655099e+00 4.909687756348924736e+00 -2.965182022815776808e+00 8.693992922885671604e+00 -8.641747394930455739e-01 8.021400794108747290e-01 -3.456058189353753418e-01
2.000000000000000111e-01 4.042393727569949746e+00 -2.944472856062225308e+00 3.610500334446031356e+00 5.482194496599055000e+00 -1.610642399148089154e+00 3.346203169357696350e+00 3.204707377370521471e-01 3.685896668600501247e-01 -1.308636580605316846e+00
2.000000000000000111e-01 -5.319764156669787303e-01 1.302056327066970942e+00 -9.600410171143030524e+00 -3.526826455713928610e+00 1.673030690430675982e+00 -1.880096228117315604e+01 8.395407107930650259e-01 -1.097577593934054407e+00 -2.811400118188451258e-01
