# Total Kinetic Energy: 191986.22502954438 J
# Total Potential Energy: -1868.5753735059368 J
# Total Energy: 190117.64965603844 J
# mass x y z vx vy vz ax ay az
2.000000000000000111e-01 1.936844526496706853e-01 2.525851269188333914e-03 -9.729663509576921276e-01 -4.326636727912664959e+00 4.386953062710717610e+00 -1.810304601276458092e+00 -8.966043962736165440e-01 6.963139999641968503e-01 -4.318718804335897610e-01
2.000000000000000111e-01 1.045735172335140184e-01 -5.010177911949577068e-01 -3.310807697626692025e-01 4.233183531912909636e+00 1.926512150119953404e+01 5.346250393177784943e+00 -8.638420432590800946e-01 7.477608111009810266e-01 -8.297878829518955390e-01
2.000000000000000111e-01 2.196566724451798902e-01 -6.265512419642255137e-01 -9.551003091311492943e-01 -1.153587285311223010e+00 8.448506200650996334e+00 9.283998416618466365e+00 9.641895495286434414e-01 -7.350472763951455546e-01 1.373103499606344924e+00
2.000000000000000111e-01 -7.403271069308360597e-02 -3.081917912779607582e-01 8.408713648935500773e-02 -3.497805564031015280e+00 -4.595786637386112261e+00 1.913603275793538927e+01 -5.460842563394595617e-01 -1.562379614909943371e+00 1.380396280783603880e+00
2.000000000000000111e-01 -1.071759581251938431e-01 -5.194854055022662953e-01 1.840475277948322441e-01 -2.876882834913705000e+00 -3.389065686065194427e+00 -4.125478518472131206e+00 8.297013594807493009e-01 2.265106253250432911e+00 9.937754100366300372e-03
2.000000000000000111e-01 -2.066603818440245544e+00 -6.233781323956604226e+00 1.271871779064215779e+00 -1.102347781558762740e+01 -2.279747491925052927e+01 7.693399397394341754e+00 5.503421260199654018e-03 -6.324108284545006953e-01 -1.983938834140225038e-01
2.000000000000000111e-01 -6.710925186832727984e-01 -8.356998088365968913e-01 -6.417795851432250842e-01 -6.289845406933640248e+00 -5.154251762571973927e+00 -3.936411142178434908e+00 1.185290918075305733e+00 1.180817650969794297e+00 4.342061600991873882e-01
2.000000000000000111e-01 2.157860375420637966e-01 -4.460024939210990302e-01 -2.927910180297029763e-01 1.592537069591832832e+01 5.837944853014375823e+00 1.240898366046085144e+01 6.301270386930696299e-01 -1.153803380428851000e+00 -5.839674396223903247e-02
2.000000000000000111e-01 9.042243684564277295e-01 -7.638795507038952382e-01 3.719052109118506366e-01 8.087168159803411527e+00 -3.710794864086754963e+00 1.123611293083132523e+01 4.819874889720659472e-01 6.233897045599963160e-01 7.806367264006173201e-01
2.000000000000000111e-01 -3.029623620021091313e-01 -1.099220326925116176e+00 -1.079260674160391842e+00 -5.861464088834408948e+00 -9.308565748738164558e+00 -1.162129866547510204e+01 -5.073469463042808991e-01 -1.432177634536540234e+00 -5.631686098712457289e-01
2.000000000000000111e-01 2.251512808724695502e-03 -3.342274376394857027e-01 -3.704050311564451720e-02 3.639391744275293661e+00 -1.520926455517399312e+01 -1.258791716189168675e+01 1.112131061580115432e+00 -1.326002105085030414e-01 1.219961580377953547e+00
2.000000000000000111e-01 3.109479174234648369e-01 -1.744042574741579699e-01 -2.956115893732862432e-01 1.163624223198599239e+01 3.542797874946681524e+00 -6.600070846514771716e+00 2.699041547263745788e-01 1.989345446514553695e+00 -2.737681246386168277e-01
2.000000000000000111e-01 -8.839239198232317074e-01 4.429818093187838923e-01 -3.897415500416217538e-01 -1.022373260603312950e+01 8.382313999525992543e+00 6.042478898827597256e+00 -2.937911826042545194e+00 1.305695967249574041e+00 3.492309820269403620e-01
2.000000000000000111e-01 -1.572111424220215881e+00 7.178955975519956123e-01 3.028925435042504888e-01 6.007133476557907414e+00 -5.133505677978006609e+00 -1.463530508832155963e+00 -7.536403006720584496e-01 -1.568655641053418592e-01 -1.413495907973157106e-01
2.000000000000000111e-01 -2.845027607769665470e-02 3.403093088840968006e-02 1.216407275280415590e-01 -2.900328211056061090e+00 -7.859987458839778895e+00 -1.461784552551602445e+01 1.119353522796681794e-01 2.620936284584423070e+00 4.785062303361312108e-01
2.000000000000000111e-01 3.257122343804055853e-01 1.618141926829924415e+00 -2.220943728159910702e+00 1.361721741750679504e+00 1.515349523213747318e+01 -1.809830828736894404e+01 2.322625098397875565e+00 9.424909421025224887e-01 3.856692653494809275e-01
2.000000000000000111e-01 8.534773985955645959e-04 -1.576713927972437090e-01 8.475332036639866562e-01 -2.344538735427118770e+00 -8.704951381125035637e-01 3.500404596525132916e+00 -7.799893016850598104e-02 -3.623660123757801999e-01 9.463559795580524237e-02
2.000000000000000111e-01 2.742134247233551925e-01 2.401691062408095323e-01 -9.846067914149990719e-01 -2.500026455430356176e+00 3.014576830995500334e+00 -1.149239925285916719e+01 -2.822203611955039215e-01 -3.743734202435109598e-02 6.932200910895870427e-01
2.000000000000000111e-01 -6.776278180581399302e-02 -3.586755510131655611e-01 -3.179598006109463082e-01 6.438248788316049520e+00 4.038515580275449324e+00 -5.014302224307046529e+00 1.092051761507943697e+00 -1.776818162249802213e-01 -1.957260997796935964e+00
2.000000000000000111e-01 1.184588110749938750e+00 1.243514052763209643e-01 -5.099497370532526386e-01 -8.602703643501916630e+00 -3.489970482203118340e+00 6.651853665305504926e+00 -1.664407931597272627e-01 -9.650068241224063481e-01 3.546644428898021451e-01
2.000000000000000111e-01 4.838201301758107697e-01 2.666812010411522271e-01 -4.010793102444957237e-01 2.280582406846205945e+00 6.573646738071342810e+00 -7.072201872772250653e+00 1.614489561108785332e-01 -5.663598480014984116e-01 -1.317715235282914538e-02
2.000000000000000111e-01 -6.450803921858285772e-01 1.588048457529334767e+00 2.248632365592252214e+00 -6.188080415408177437e+00 9.208235234810292269e+00 1.441474412578263120e+01 6.295661757179298323e-01 -1.537997823929941443e+00 3.874429109039332908e-01
2.000000000000000111e-01 -4.155717794139879295e-01 2.531244497143100153e-02 -1.179151069738952895e-01 -6.312806151557444956e+00 4.478179433320120140e+00 6.053228945630029223e+00 1.218003542201554712e+00 2.790102563485865605e-01 -9.241176421201500180e-01
2.000000000000000111e-01 1.519086310124025951e-01 -3.509659566644962037e-01 -1.667716312614802576e-01 5.895014013296038691e+00 -5.531146234153522023e+00 2.326988207825005261e+00 1.613871496129092753e+00 6.812046624892643676e-01 -6.590206085151249261e-03
2.000000000000000111e-01 -3.502958095885272405e-02 2.399610760276469357e-01 -4.229407775841440009e-02 5.761122817618225866e+00 -8.735639076786615220e+00 -1.573595617068160379e+01 -5.432097655884298160e-01 8.423833018329252020e-01 -1.494328948952003411e-01
2.000000000000000111e-01 6.085051481542371743e-01 -2.484980719671485705e+00 -1.572176310470046134e+00 5.508856051503050466e+00 -4.226103991975072027e+00 -1.019690658773930458e+01 -8.719875287864491120e-02 -3.539668042882763155e-01 5.144601091997094144e-01
2.000000000000000111e-01 1.869132969005675493e+00 2.903443635952939264e-02 1.884793655035184701e+00 -2.921895180008116988e+00 3.428943537773660594e-02 -4.688802929725633284e+00 2.974928503074385500e-01 1.880010619296722807e-01 1.301228515883393833e+00
2.000000000000000111e-01 2.984025894891563502e-02 -2.958334462815906951e-01 -1.471879091191782285e-01 7.083979048646225074e+00 7.248460290928223415e+00 1.155516302869247269e+01 9.941663314276857899e-02 -1.730516482962342284e+00 1.597179739205750515e+00
2.000000000000000111e-01 -1.030485211385910593e-01 5.412667521791607594e-01 3.163317704989748735e-01 -5.580446993068232331e+00 -2.126016269992352381e-01 3.147382696171828531e+00 3.571589793730877149e-01 5.647964869292386725e-01 -5.523340820094913006e-01
2.000000000000000111e-01 1.047303983311314857e-01 -3.945699323172136008e-01 3.452117923442035163e-01 5.815417728270668718e+00 3.692241686163069136e+00 -3.728677459924756299e-02 -1.931708422166933392e-01 -5.189179524242124586e-01 -1.345254381590285479e-02
2.000000000000000111e-01 -6.317327544078353563e-02 -4.395739305458647439e-01 -3.007440381204184998e-01 -2.433729490869193324e+00 7.014697293700951519e+00 -2.220739795449469423e+00 -9.242347930784594601e-01 7.576997478856134505e-02 -1.392233521600583779e-01
2.000000000000000111e-01 -7.106293112885817553e-01 -4.186105297726083196e-01 -1.173788551753459197e+00 -8.329181496230310344e+00 -3.082893393541406013e+00 -8.759864772177847314e+00 5.957694771162939107e-01 6.344032431227376589e-01 1.694406892158661637e-01
2.000000000000000111e-01 2.578968240134378587e-02 6.754786526529577007e-01 -2.268924428105284719e+00 -6.138454861811857288e-01 -1.822071543530011661e+00 6.120404073708205495e+00 -1.336421660492691510e+00 -7.612067198992983341e-01 -2.184442207875056940e-01
2.000000000000000111e-01 4.081352572466164230e-01 -2.026835563152740508e-02 4.012819817654187382e-01 -1.504951989934160128e+00 5.871103571953120714e-02 8.572167960230871131e+00 1.830918505940636765e+00 1.181604583309558532e+00 -1.100132766297575060e+00
2.000000000000000111e-01 -9.452869909362592304e-01 1.339535536797613058e-01 1.021345446042457895e-02 1.051079534110164815e+01 -4.183674997402752282e+00 -9.702278347729486052e-01 4.857270106093193318e-01 7.824859205214137470e-01 6.107351836588704730e-01
2.000000000000000111e-01 -2.479401938331918798e-01 -1.925059260610289535e-01 -3.978376386454426927e-02 4.217664309393105881e+00 -1.448148002931420875e+00 -9.830035039216200587e+00 -4.083798253849345583e-01 9.460632332611424999e-01 1.022129414245795065e+00
2.000000000000000111e-01 -1.140528008035812224e+00 -7.556143382744560100e-01 -1.147097802370621089e+00 -1.292786568127667834e+01 -2.787543636251917256e+00 -9.701781210400962863e+00 -2.107969015098144078e-02 4.127555384102606084e-02 1.096106413350836695e+00
2.000000000000000111e-01 -1.151166800788596678e+00 -2.818361508370422763e-01 -8.410607564335029762e-01 -8.065107117911733070e+00 -4.317246720091456602e+00 -4.128780714934094931e+00 1.425218080926183295e-01 -2.681533460908795963e-01 1.418374357297791155e+00
2.000000000000000111e-01 3.999613790874213759e+00 -1.489925527513359604e+00 -3.272652558317036053e+00 1.813807223230890386e+01 -1.800659327003864663e+00 -9.687533419465529150e+00 -5.235611869307986721e-01 1.637598205090995407e-02 1.805484899473831950e+00
2.000000000000000111e-01 -1.293889070370058514e+00 7.029088024971287263e-01 -2.720566622275828017e+00 1.907972413063759198e+00 -1.774101441885354236e+00 2.458514901636846162e+00 -3.163202295495595173e-01 9.522321988995448294e-02 -9.461629756402882840e-01
2.000000000000000111e-01 5.735544427604820639e-01 7.201342822561412893e-02 4.512396165791733305e-01 1.396388329464867795e+00 -3.856019628528274623e+00 1.231304363584650652e+01 4.174437476093765254e-01 -1.380181655339153934e+00 7.162574535250282315e-01
2.000000000000000111e-01 -6.034636445116660086e-01 -8.362019402107272459e-01 -4.679672237008425939e-01 9.610413070264037572e+00 6.709410864748512004e+00 6.224568851506994349e+00 4.525296649238253477e-01 3.344140889732000188e-01 -8.236417003079894439e-01
2.000000000000000111e-01 -5.297720910264105854e+00 -9.580904805485218612e-01 -1.188376443983908182e+00 -2.465151787290137619e+01 -3.345245362633350261e+00 -8.135130893788003803e+00 9.444238424574774582e-01 -3.599042377706139217e-01 -1.177655621319875223e+00
2.000000000000000111e-01 -2.739682522530137443e-02 -1.612716270220236892e-01 -3.549496055390767291e-01 -1.558447472694120428e+01 3.202748521996335640e+00 -1.158753055148112843e+01 -7.094150650241234368e-01 -3.432787591816053863e-01 1.729752256166292357e+00
2.000000000000000111e-01 4.180043628873835182e-01 -4.460638414539008084e-02 5.137488236490521387e-02 1.892678371688700523e+01 4.950758301281539708e+00 -8.418776020662791737e+00 -1.396083541317549193e+00 8.191167938667391901e-01 -3.516869100966322215e-01
2.000000000000000111e-01 9.932520299036099454e-01 -4.179785423544407630e-01 9.697163947190775568e-01 6.719661203226155344e+00 6.063130343944197476e-01 1.038693212850448866e+01 2.262981583088385928e-01 -7.784210350138612844e-01 -1.020055248432633954e+00
2.000000000000000111e-01 -1.977241177912335557e-01 -9.027559515043985794e-01 -3.356542151865547496e-01 -8.486066028999522004e+00 -1.437108979677114284e+01 -1.958155703349827137e+00 -1.144496758295514005e-01 5.738673722206977246e-01 1.563535298382324745e-01
2.000000000000000111e-01 4.233977117907966603e-01 -1.050835779225221200e+00 9.045160557886081643e-01 3.393280138211209884e+00 -8.050927432705998754e+00 5.723505908415231325e+00 8.956669621207787868e-01 -1.940213859434855470e+00 -4.546162688754084025e-01
2.000000000000000111e-01 -3.631828996040148971e-01 5.147408740304024871e-02 -2.663909137771791169e+00 -5.039250036315878312e+00 1.427905057546346557e+00 -1.630145045484744770e+01 1.287839676788305132e+00 1.211425043583911343e-01 -4.177786500589580343e-01
2.000000000000000111e-01 2.981004147737084664e-01 -3.782180475165300981e-01 4.955964982152364362e-01 -6.365950422301481559e+00 -2.330209684629489519e-01 4.127068862003474337e+00 1.645292458308862171e+00 6.000702075107278155e-01 -1.452035520500345012e+00
2.000000000000000111e-01 3.449950661202254021e-01 9.886469138967513004e-03 -6.690794274992778456e-02 -1.102683632977819883e+01 -1.663973717220719806e+01 4.304020323665711523e+00 8.565027547425647647e-01 4.045933102233424949e-01 2.699203104838276412e-01
2.000000000000000111e-01 1.350848041326248250e+00 -1.213285483735955517e-01 5.250846385052069243e-01 7.281170420277073063e+00 -1.339246626034253040e+00 8.944656021243886812e+00 1.079373184858595902e+00 1.168430214982944665e-01 2.078051804633141320e+00
2.000000000000000111e-01 3.881828995138211780e-01 -1.804582001739775121e-01 6.893837397323999694e-01 -6.964927240114029416e+00 6.014460867953035361e+00 -4.835350629159109737e-01 -3.116156579120536452e-01 -9.656805898680476119e-01 1.049679311352054611e+00
2.000000000000000111e-01 5.502151144870350841e+00 1.153702854210765905e+00 6.896611157775877077e-01 2.461413188392759821e+01 6.417417528633072799e+00 6.083054734679390618e-01 -1.178040336042603387e-01 -1.359939040977154734e-01 2.226318798930941589e-01
2.000000000000000111e-01 5.141307908065924082e-01 3.038343026243642275e-02 2.015681445585301990e-01 7.887584672860654678e-01 3.349706642873286455e+00 9.864796674081540928e+00 6.605003871932092485e-01 2.834908369412093565e-01 8.112638664168756453e-01
2.000000000000000111e-01 -5.042559857597828987e+00 9.105473839061677399e-01 2.803793129289045005e+00 -1.468340176303669153e+01 6.444966570928614580e+00 1.189303829738324048e+01 -9.524643725018940854e-01 1.203399519389974637e-01 -7.508942591848019044e-01
2.000000000000000111e-01 -3.021722275902462562e-01 -1.645894409356626342e-01 -3.357919286459408181e-01 -7.651855195454341896e+00 -2.350507632995753049e+00 7.926212461040438306e+00 -8.714850382688268393e-01 -1.451128569074773278e-01 -4.430263072455225548e-01
2.000000000000000111e-01 1.063816564499232786e+00 5.183919594665596264e+00 -2.237316798996704215e+00 1.557169821027940326e+00 2.258103647995997676e+01 -6.052681235104466317e+00 6.653372657258510570e-01 -5.790713660383163264e-01 -9.607341965854655497e-01
2.000000000000000111e-01 -1.614341125356214546e-01 2.730698462674412963e-01 4.822987655362702131e-01 -6.073079561298971862e-01 2.881527122643221972e+00 5.597417320645695860e+00 -2.987053318640132127e-01 -6.339671642628654791e-01 -2.061552010098763432e+00
2.000000000000000111e-01 -2.911917643816280127e-02 1.992793310553521602e+00 1.603004632432876830e+00 3.761191463128464640e+00 8.743773852336499175e+00 5.436040889261031239e-01 -7.224952440073477700e-01 6.793649994325586805e-01 -6.342272416482459541e-01
2.000000000000000111e-01 -4.675566215534919523e-02 7.643234766780312994e-02 1.910891172565552451e-02 -4.607657231734674674e+00 -4.045767245210776686e+00 -2.898525338050992328e+00 -7.648265045724579325e-01 -5.277428730811927204e-01 -7.285606645227563627e-01
2.000000000000000111e-01 4.587585713815671706e-01 -5.262535005807945643e-01 1.203680887392125226e-01 -5.782060443552756723e+00 -1.926872533097988338e+00 7.657694571043799137e+00 1.401336077286875259e+00 1.994418133751360456e+00 -2.493633451681860791e+00
2.000000000000000111e-01 2.395338345357718446e-01 -1.890363270161596887e-01 -1.328691983706395408e-01 -4.019548048905574156e+00 -2.524768943697984103e+00 -8.455857401430968423e+00 -1.686947643786270434e-01 -1.112949139721709502e-01 1.785866028079163836e+00
2.000000000000000111e-01 4.067049504804721161e-01 2.489042414231062983e-01 -8.504795540032349388e-01 2.616596365905872634e+00 7.702583430562804923e-01 -1.420731276714531965e+01 1.095186438311185118e+00 -2.027299091432454570e-01 -1.658432873299482635e+00
2.000000000000000111e-01 -7.413035101069213872e-02 -2.630629540330116090e-01 -4.432734637570145964e-02 3.368820793720122886e+00 -4.038966802234759790e+00 -8.842291027935971215e+00 -6.831357477726296423e-01 -3.446388259010521038e-01 -2.665593068137567245e-01
2.000000000000000111e-01 3.388962118951976965e-01 -1.732200692066605541e+00 -1.556511425760150225e+00 -5.340200716844751838e+00 -7.412410543719687439e+00 -4.099013601219371417e+00 -1.592421874085047095e+00 1.156823731462514049e+00 1.069107359911631194e+00
2.000000000000000111e-01 1.315470614573892139e+00 -4.340704033056639322e-01 1.305393418204215283e+00 -8.070962071028713325e+00 1.498594248528362094e+00 -2.037172245165233875e+00 -1.223310586007041900e+00 9.809448759719592292e-01 3.204576417922734843e-01
2.000000000000000111e-01 2.100119861858282810e-01 2.123083406026935460e-01 -3.198393329248620520e-01 -5.906137884556912354e-01 -7.756636693980559549e+00 -4.163513006259048410e+00 -2.235644314850002146e-01 -1.068210350058179214e+00 6.135394559233900424e-02
2.000000000000000111e-01 3.722220331431822515e-01 2.513352241634056461e-01 -8.470683188712768708e-01 1.197038875634302713e+01 3.611240267129878667e+00 -2.951676097726769754e+00 -1.979166230203300403e+00 1.097375253062042644e+00 -9.086383778499577124e-01
2.000000000000000111e-01 -8.928497189104639409e-02 -2.307735810781783026e-01 -7.483417267134606643e-02 -9.584349222416616243e+00 -2.261528580390788079e-01 -1.431349279127198137e+01 -1.411618830972717564e+00 5.578939698536565794e-01 -4.266426693507894274e-01
2.000000000000000111e-01 3.347523787943517126e-01 -4.609464841519786416e-02 -4.168846119575465581e-01 -4.957826372309581231e+00 7.259718614721977659e+00 3.491068991767376506e-01 5.830791308948009011e-01 -1.849702544535568594e-01 1.763019130122224221e+00
2.000000000000000111e-01 -1.727625191224463896e-01 -4.788786330304462546e-01 -2.438518559559449683e-01 -4.522830970057418298e+00 3.400582185070889274e+00 -5.074080889147546181e+00 -1.720659399611626839e+00 9.798266126681859367e-01 -5.723369920806001820e-01
2.000000000000000111e-01 4.516837268693750795e-01 -1.027224622646718988e+00 8.792062626160018768e-01 -1.802451811974238538e+00 -2.175186633423662919e+00 1.025993452186720134e+01 -2.242880105773636057e+00 -1.565798704276393893e+00 -1.214715150843223290e-01
2.000000000000000111e-01 5.982819708670247261e-01 -7.183097777934231987e-01 1.239305659834109230e+00 6.230678014213062887e+00 -4.153671169768617943e+00 9.356873086690825403e+00 4.655558135037913756e-03 -1.120947515242226161e-01 9.164997665003927763e-01
2.000000000000000111e-01 -7.658060749965536207e-01 3.955861735107257804e-01 -1.061388555341230555e-01 -8.980418721000328119e+00 1.665430232456347470e+00 -8.819062644295851072e+00 1.699226508802586522e-01 -6.679689897872609361e-02 -1.017354596041230852e-01
2.000000000000000111e-01 -5.637000302711843158e-01 -2.691745036538666369e-01 -3.540684696693251199e-02 1.170889340846920668e+01 8.756211160349199218e+00 1.149173532944697484e+01 9.575996716961209243e-01 -3.800212820832296057e-01 -5.476042479688690845e-01
2.000000000000000111e-01 7.465799398045107338e-02 2.317026206749625838e-01 -2.240172121563147045e-01 -6.400466462748838126e+00 -1.687702004363610087e+01 5.905993295678684696e+00 1.733335360229991018e+00 1.607423515250675505e+00 -1.463360001873950322e+00
2.000000000000000111e-01 2.379975767918906804e-01 -6.512026929214331794e-01 -2.097881120857222559e+00 -1.970102465094818456e+00 -9.842178490278003622e+00 -8.624266139451718161e+00 -1.481259929826439725e+00 -5.562455566616666403e-01 6.364195616805071731e-01
2.000000000000000111e-01 2.783754553698565559e-03 -1.211174141201939586e-01 3.288034287762157948e-02 -6.299510862548700629e+00 -4.793898020469945287e+00 3.986971801030538387e+00 -1.069776904912365989e+00 9.217015482178823049e-01 5.922274772907178964e-01
2.000000000000000111e-01 2.331864112765172636e-01 2.313484297218646180e-01 4.284816786801804445e-01 4.042437382032149085e-02 1.226310906366523668e+01 1.414434287378199606e+01 7.915148001624806584e-01 -1.015363135660433791e+00 -8.048018562985213009e-01
2.000000000000000111e-01 -3.459711715009866073e-01 6.340593817790063369e-02 6.397705413807374120e-01 6.893057748284679986e-01 -3.379004867206478302e+00 5.773213318189897691e+00 1.082903688098803552e-01 -5.069023257663189952e-01 9.891051370425618661e-01
2.000000000000000111e-01 -9.850462814404196132e-01 1.517717942840539180e+00 8.064122437892284889e-01 1.548866328297061834e+00 -6.049476283650574437e+00 -2.798477219850180386e+00 9.536227737899083401e-01 -1.137963513142421279e+00 -4.347659099736778110e-01
2.000000000000000111e-01 -3.867857848411437871e-02 -1.394823208853452901e-01 -3.070944415769243929e-01 1.022832519270654394e+01 1.755329100113248586e+01 5.009559020386363137e+00 -6.732880253705347817e-01 2.568116709601713232e-01 -1.128152052396058647e-01
2.000000000000000111e-01 4.180972723788011214e-01 1.328281189284712671e-01 1.040390469618450997e-01 2.507461958582311912e+00 -3.441207988658043782e-01 5.682536466371804096e+00 2.992763546852804102e-01 -5.328473851187549570e-01 -1.297512116512353542e+00
2.000000000000000111e-01 -1.333021906996156025e-01 -1.123209441860281294e-01 -1.101946177410795036e+00 -2.531957100396355465e+00 -3.369619637532786705e+00 -2.744147402078292330e+00 5.847261847852484040e-01 -9.341694633415285054e-01 1.877333420170706590e+00
2.000000000000000111e-01 8.443292072049567443e-01 -5.530916969846566555e-01 6.530510526701835960e-01 4.373244129197235708e+00 -2.345907579335194448e+00 6.688180760459517593e+00 4.795365590435126668e-01 6.818718284222321513e-01 -5.250361889456554021e-01
2.000000000000000111e-01 -4.677289152972752273e-02 -7.810902109421022366e-02 -4.916532970121630097e-03 -1.621557137928196468e+01 8.939019631989916448e+00 5.958496646217925630e-01 9.645143198464114498e-01 4.682952647395684509e-01 3.107797749933667864e-01
2.000000000000000111e-01 -7.603634502878464652e-01 7.387100188710814530e-01 -7.411743159132139214e-02 -5.333959856387286536e+00 7.084561125149725136e+00 4.011290291154231968e-01 -7.817659407701461616e-01 1.594335185503471530e+00 1.721765692341389320e+00
2.000000000000000111e-01 3.915828589012303462e-01 2.080825339694643006e-01 -4.073733651066413497e-01 4.860122633816296833e+00 6.969891426212558194e+00 2.267596831888869069e+00 -1.439414282393020494e+00 1.777630996610942260e+00 -3.724604661493456925e-01
2.000000000000000111e-01 -4.372776426410722728e-01 -2.604468784212619070e-01 -9.489996906620129513e-01 1.092256972676229232e+01 6.530216055048138735e+00 2.589064068170502608e+00 -1.938215621452891391e+00 -6.327112457936556744e-02 1.103146849808664287e+00
2.000000000000000111e-01 -5.770865935467900387e-01 -6.002559093537869206e-01 2.771992049613467124e+00 -2.766058874487758779e+00 -5.576546230164818319e+00 2.365516126021178334e+00 -6.640342753126907693e-01 -4.956786245842724203e-01 1.591482884198499592e+00
2.000000000000000111e-01 5.754517841604075423e-01 -1.112354823317901253e+00 1.017805077362249788e+00 4.197014135514677946e+00 -3.406435684276249098e+00 8.146418793848807738e+00 2.746750731775911558e-01 -4.907863013043615164e-01 -7.109935330655287045e-01
2.000000000000000111e-01 3.241908191128051175e-01 2.119891141829134407e-01 -1.283673078989597260e-01 1.297294236907275966e+01 7.098021558309381085e+00 -5.181989395762205852e+00 1.176877925213579978e-01 1.227415732175720919e-01 -8.556183829225534332e-01
2.000000000000000111e-01 3.105449942984674361e-01 -4.406408574304178649e-01 -3.502319286662276543e-01 4.806596580190511503e+00 -6.819040876634564263e+00 -1.453407105845000657e+01 1.299762502845322132e+00 -1.351280231070889626e-01 1.318074112029440803e+00
2.000000000000000111e-01 3.106279532913914232e-01 1.125012128188573657e+00 -5.721491016400164220e-01 8.531715264518818786e-01 -9.482529258307820896e+00 2.752843486713196230e-01 -7.681547079383016507e-01 3.254067364212411273e-01 4.054419149060385641e-02
2.000000000000000111e-01 5.811120994924580119e-01 -1.151662104098907680e+00 -5.600112318862632277e-01 -3.084332757914918233e+00 8.112543376557060926e-01 2.493140773546724365e+00 -1.180614442082631235e-02 -1.495239641433372180e+00 4.810501795975972161e-01
2.000000000000000111e-01 4.923761742238619843e-01 -5.029929342593070229e-01 -1.121759216915812818e+00 -2.553661359008251530e+00 -2.146716314718356333e+00 -7.626825296360445705e+00 2.076422368118658213e+00 -8.757048250047075877e-01 -6.108924061946308104e-01
2.000000000000000111e-01 9.770235296930224189e-01 -9.488693408387791628e-01 5.141213162784684654e-01 1.135607413954425482e+01 -8.568103197006870175e+00 1.216968803166510327e+01 -8.641747394930455739e-01 8.021400794108747290e-01 -3.456058189353753418e-01
2.000000000000000111e-01 3.759846679084277166e-01 -1.016914054944844326e+00 9.187426992153702177e-01 1.404282648747757101e+00 -3.608142990046141918e+00 1.631838489123858338e+01 3.204707377370521471e-01 3.685896668600501247e-01 -1.308636580605316846e+00
2.000000000000000111e-01 -4.964754587257431961e-02 4.051600731395472998e-02 9.845734766058961140e-04 1.167216404867155610e+01 8.369383122572768841e+00 -3.944044531454004243e+00 8.395407107930650259e-01 -1.097577593934054407e+00 -2.811400118188451258e-01
