# Total Kinetic Energy: 136585.47251088786 J
# Total Potential Energy: -706.3469828697521 J
# Total Energy: 135879.1255280181 J
# mass x y z vx vy vz ax ay az
2.000000000000000111e-01 -1.600777423503525199e-01 4.523285423062087252e-04 6.692971575860718891e-01 3.208668754917749499e+00 -3.709197712748370179e+00 7.641174703785795330e+00 -8.966043962736165440e-01 6.963139999641968503e-01 -4.318718804335897610e-01
2.000000000000000111e-01 4.545206002090789732e-01 2.489568890127177081e+00 6.416662234592604985e-01 1.111439515478763518e+00 6.962653142670296447e+00 2.954537928160654747e+00 -8.638420432590800946e-01 7.477608111009810266e-01 -8.297878829518955390e-01
2.000000000000000111e-01 -4.732470667590906732e-01 5.815569700056800739e-01 2.485582533470082733e+00 -1.648840331579351171e+00 1.650486772814917291e+00 1.016596311450610735e+01 9.641895495286434414e-01 -7.350472763951455546e-01 1.373103499606344924e+00
2.000000000000000111e-01 2.566808583923698150e-01 -1.399941967162127987e-01 2.402405051591891993e+00 2.955801570850832061e+00 1.463334100893409762e+00 4.838138601979275144e+00 -5.460842563394595617e-01 -1.562379614909943371e+00 1.380396280783603880e+00
2.000000000000000111e-01 4.502618298697136923e-01 9.328105685551534298e-01 -1.976387874555192159e-01 2.021935761434800582e+00 2.273618918539158429e+00 2.748711497811100468e+00 8.297013594807493009e-01 2.265106253250432911e+00 9.937754100366300372e-03
2.000000000000000111e-01 -4.902408326055814669e+00 -1.207974298352695008e+01 3.251958127502405649e+00 -1.083101865055911439e+01 -2.229010854005694853e+01 7.564122983118306998e+00 5.503421260199654018e-03 -6.324108284545006953e-01 -1.983938834140225038e-01
2.000000000000000111e-01 -1.247297761222016188e+00 -1.191743112146249395e+00 -1.102134737121890140e+00 -1.421838800529492408e-01 7.888709683052282928e-01 -7.989137753292833155e-01 1.185290918075305733e+00 1.180817650969794297e+00 4.342061600991873882e-01
2.000000000000000111e-01 1.374997486556131410e+00 1.509049074586850114e+00 1.980386399951253429e+00 1.486109734641786861e+00 5.663605684599335000e+00 5.556502039100552182e+00 6.301270386930696299e-01 -1.153803380428851000e+00 -5.839674396223903247e-02
2.000000000000000111e-01 1.803544516995913893e+00 -1.048531924983432617e+00 3.092698770991463508e+00 9.863748986382451234e-01 -1.248063570950080914e-01 8.642439803252782937e+00 4.819874889720659472e-01 6.233897045599963160e-01 7.806367264006173201e-01
2.000000000000000111e-01 -1.510654888053106548e+00 -2.833520974568171535e+00 -3.442837167651215946e+00 -3.821445833695652272e+00 -5.495601561851378491e+00 -7.711639511015346393e+00 -5.073469463042808991e-01 -1.432177634536540234e+00 -5.631686098712457289e-01
2.000000000000000111e-01 1.618737948160144657e-01 -5.424435750023004488e-01 -2.240481823886272483e+00 -2.526101692046778702e+00 1.851392210100383684e+00 -3.701221530342611921e+00 1.112131061580115432e+00 -1.326002105085030414e-01 1.219961580377953547e+00
2.000000000000000111e-01 -1.306934367089956694e+00 3.390554797744041449e-01 1.259257769618923328e+00 -2.373825552127031102e+01 -4.679459526966529559e+00 2.091445894857579901e+01 2.699041547263745788e-01 1.989345446514553695e+00 -2.737681246386168277e-01
2.000000000000000111e-01 -2.101570306533268706e+00 1.716016241716491031e+00 1.258427054077925655e+00 -2.236646463839726096e+00 2.795958266916269697e+00 5.480801010002291029e+00 -2.937911826042545194e+00 1.305695967249574041e+00 3.492309820269403620e-01
2.000000000000000111e-01 1.369955309214695882e+00 -4.301259046780459006e-01 -1.791376021412949271e-01 1.083598327698047470e+01 -1.806026372811140313e+00 -7.850367256529270366e-01 -7.536403006720584496e-01 -1.568655641053418592e-01 -1.413495907973157106e-01
2.000000000000000111e-01 1.142979399212245450e+00 -1.629447415205819816e+00 -1.313357182829491876e+00 3.123184880128083485e+00 -4.487550625486453448e+00 -2.514013035704016907e+00 1.119353522796681794e-01 2.620936284584423070e+00 4.785062303361312108e-01
2.000000000000000111e-01 6.402508620875381196e-01 5.321997408076012626e+00 -6.680870815898080295e+00 1.157603619634319125e+00 1.383784946913063152e+01 -1.670048536950281814e+01 2.322625098397875565e+00 9.424909421025224887e-01 3.856692653494809275e-01
2.000000000000000111e-01 -2.604572717794188197e+00 -2.388451016852766173e+00 3.221730559554274897e+00 -1.176161149192670585e+01 -1.063890793966961468e+01 1.138800241594947771e+01 -7.799893016850598104e-02 -3.623660123757801999e-01 9.463559795580524237e-02
2.000000000000000111e-01 -4.441686573549065431e-02 7.775774959655029628e-02 -1.922916589518633979e+00 -1.591365319657168209e+00 -2.169043308763994649e+00 2.495610900497578499e-01 -2.822203611955039215e-01 -3.743734202435109598e-02 6.932200910895870427e-01
2.000000000000000111e-01 -6.787525924908468511e-01 2.266308934387072788e-02 2.273874147069714635e-01 -7.020589867124162886e+00 -2.457137957214415191e+00 3.950458593684744280e+00 1.092051761507943697e+00 -1.776818162249802213e-01 -1.957260997796935964e+00
2.000000000000000111e-01 -1.674454275220232491e+00 5.149441009040078843e-01 1.235629525235248494e+00 -6.391705774766876402e+00 4.787201732329207537e+00 4.537229649362569006e+00 -1.664407931597272627e-01 -9.650068241224063481e-01 3.546644428898021451e-01
2.000000000000000111e-01 -7.962853744049492866e-01 -2.037769382442671251e-01 4.099140459205823372e-01 -5.909899439540146737e+00 -1.119323901058771442e+00 5.612176832025208562e+00 1.614489561108785332e-01 -5.663598480014984116e-01 -1.317715235282914538e-02
2.000000000000000111e-01 -2.150858956118316012e+00 3.790331906111423343e+00 5.722859377326137142e+00 -5.559852902630798788e+00 8.057368105016207593e+00 1.278764359311128374e+01 6.295661757179298323e-01 -1.537997823929941443e+00 3.874429109039332908e-01
2.000000000000000111e-01 7.304384698264011766e-02 -3.152158361744763493e-01 7.462847118367907373e-03 1.116555759964563466e+00 -2.133395578864783371e+00 -3.128689865032292516e+00 1.218003542201554712e+00 2.790102563485865605e-01 -9.241176421201500180e-01
2.000000000000000111e-01 -3.929620197432002193e-01 8.808304406662119668e-01 1.516930892969707290e-01 -3.694454341549832321e+00 1.382421711684037380e+00 1.470682106370908793e+00 1.613871496129092753e+00 6.812046624892643676e-01 -6.590206085151249261e-03
2.000000000000000111e-01 4.730905885893773588e-01 -2.097316446169645854e+00 -1.498386125578531791e+00 -9.371973791457122172e-01 -5.089601461689767348e+00 -2.863806955615007421e+00 -5.432097655884298160e-01 8.423833018329252020e-01 -1.494328948952003411e-01
2.000000000000000111e-01 1.869028977208629483e+00 -3.193889025869296905e+00 -3.956584450151719334e+00 4.343096765767360701e+00 -1.899010575384670885e+00 -8.417532983669950397e+00 -8.719875287864491120e-02 -3.539668042882763155e-01 5.144601091997094144e-01
2.000000000000000111e-01 2.786191532967577933e-01 -1.072738491401522554e-01 -7.785289809424716934e-02 -8.563577850609075170e+00 -2.010547441189214357e-01 -9.722236881016803167e+00 2.974928503074385500e-01 1.880010619296722807e-01 1.301228515883393833e+00
2.000000000000000111e-01 5.611876105705301265e-01 3.149688938070733246e-01 9.428374215350295851e-01 -1.650075842828705230e+00 1.602135643828935585e+00 -9.266001804636962991e-01 9.941663314276857899e-02 -1.730516482962342284e+00 1.597179739205750515e+00
2.000000000000000111e-01 2.779871063565976241e-01 -1.642719268469270688e-01 -2.661910519353205551e-02 8.052936874535101097e+00 -9.250017207811523923e-01 -2.563419568274497351e+00 3.571589793730877149e-01 5.647964869292386725e-01 -5.523340820094913006e-01
2.000000000000000111e-01 1.256906969627357984e-01 5.384410988108609963e-01 -3.806010365001310514e-01 -4.039812675499970140e+00 7.115668239889438862e-01 -1.242585560745466333e+00 -1.931708422166933392e-01 -5.189179524242124586e-01 -1.345254381590285479e-02
2.000000000000000111e-01 3.489505398815564985e-01 3.337748109674186781e-01 -2.503195151671754326e-01 2.767758480743132132e+00 -3.704381737446493794e-01 -1.726436247651166989e+00 -9.242347930784594601e-01 7.576997478856134505e-02 -1.392233521600583779e-01
2.000000000000000111e-01 -2.209493594173457254e+00 -1.022365521807499844e+00 -2.497009406223472894e+00 -4.170184595770071390e+00 -1.790215504958375892e+00 -3.007162663674760594e+00 5.957694771162939107e-01 6.344032431227376589e-01 1.694406892158661637e-01
2.000000000000000111e-01 -3.166141036239958351e-02 -3.367299426638827864e-01 5.087464302108692937e-01 -3.470273568420239929e+00 -2.698321274904748268e+00 9.349405918106548086e+00 -1.336421660492691510e+00 -7.612067198992983341e-01 -2.184442207875056940e-01
2.000000000000000111e-01 -2.681998691688572301e+00 1.468538637965292271e+00 1.011162291160639937e+00 -1.621314924964699600e+01 8.955761865781369124e+00 7.120421859948957710e-01 1.830918505940636765e+00 1.181604583309558532e+00 -1.100132766297575060e+00
2.000000000000000111e-01 2.939900320897078423e+00 -5.901411273146315306e-01 -3.854089474626960499e-01 1.261872652159028974e+01 -1.031113705796740554e+00 -1.472298074405517410e+00 4.857270106093193318e-01 7.824859205214137470e-01 6.107351836588704730e-01
2.000000000000000111e-01 2.313372292895857552e+00 5.876286750577159879e-01 -1.186923772854294290e+00 3.938573062022913351e+00 3.076747913119042277e+00 -1.858191679647151151e+00 -4.083798253849345583e-01 9.460632332611424999e-01 1.022129414245795065e+00
2.000000000000000111e-01 -3.760472566585068233e+00 -1.171477500033667685e+00 -3.165347368600612832e+00 -8.600874096951564240e+00 -1.199268862059677199e+00 -6.775830039253705195e+00 -2.107969015098144078e-02 4.127555384102606084e-02 1.096106413350836695e+00
2.000000000000000111e-01 -2.112568488720704352e+00 -1.240801472374221559e+00 -1.553820492305831191e+00 -1.106956373756233347e+00 -2.847660702850593584e+00 -1.945242046791649804e+00 1.425218080926183295e-01 -2.681533460908795963e-01 1.418374357297791155e+00
2.000000000000000111e-01 8.604030961442825642e+00 -1.926245898852816829e+00 -5.710164931821507750e+00 1.743154154060700023e+01 -1.609082381607267465e+00 -9.184183496290842186e+00 -5.235611869307986721e-01 1.637598205090995407e-02 1.805484899473831950e+00
2.000000000000000111e-01 -4.287209835017194437e-01 -1.948587297925675338e-02 -1.467017617048066880e+00 4.879138937788077612e+00 -3.823359675024315507e+00 7.178924928882866929e+00 -3.163202295495595173e-01 9.522321988995448294e-02 -9.461629756402882840e-01
2.000000000000000111e-01 -3.411138997469272960e-01 -8.379146753476420795e-01 1.544751135511422957e+00 -3.710007422381145226e+00 -1.496543551482266254e+00 7.184460935503919066e-01 4.174437476093765254e-01 -1.380181655339153934e+00 7.162574535250282315e-01
2.000000000000000111e-01 2.058361406110549741e+00 1.968210809844284537e+00 1.034862608027991238e+00 8.162232576378789517e+00 8.338126455247074631e+00 5.266219993705886004e+00 4.525296649238253477e-01 3.344140889732000188e-01 -8.236417003079894439e-01
2.000000000000000111e-01 -1.159291586718151734e+01 -1.810914863453302104e+00 -3.278526041981889350e+00 -2.395302118659160584e+01 -3.244309116962235784e+00 -7.975997525196437010e+00 9.444238424574774582e-01 -3.599042377706139217e-01 -1.177655621319875223e+00
2.000000000000000111e-01 -1.867399834377904133e+00 1.697022934064072175e-01 -1.095594950486591390e+00 -3.273236577799747860e+00 7.206166533673619146e-01 -1.390681174290026023e+00 -7.094150650241234368e-01 -3.432787591816053863e-01 1.729752256166292357e+00
2.000000000000000111e-01 2.587022318529633047e+00 8.250145084952528185e-01 -2.082898520010702637e+00 3.893134838382463325e+00 3.097383684769817958e+00 -7.315236092635071685e+00 -1.396083541317549193e+00 8.191167938667391901e-01 -3.516869100966322215e-01
2.000000000000000111e-01 1.035823409585228561e+00 -3.284524571494626399e-01 2.743841533699129531e+00 -2.241287251443603523e+00 -3.057317316388965533e-01 3.700674273068540465e+00 2.262981583088385928e-01 -7.784210350138612844e-01 -1.020055248432633954e+00
2.000000000000000111e-01 -1.867750575416315284e+00 -3.152093359741666490e+00 -7.071063629422175145e-01 -5.243450042335028982e+00 -6.328632687568141790e+00 -1.158360756264706470e+00 -1.144496758295514005e-01 5.738673722206977246e-01 1.563535298382324745e-01
2.000000000000000111e-01 7.860902057659489017e-01 -3.863696661489426920e-01 2.360160839792236676e+00 1.129087561655778060e+00 5.235594533605540946e+00 3.764774800651248032e+00 8.956669621207787868e-01 -1.940213859434855470e+00 -4.546162688754084025e-01
2.000000000000000111e-01 -1.591887937012779863e+00 3.884872202640062278e-01 -6.431958977424577562e+00 -4.526322890773162300e+00 1.183158942639369826e+00 -1.355252727401509460e+01 1.287839676788305132e+00 1.211425043583911343e-01 -4.177786500589580343e-01
2.000000000000000111e-01 -3.419611133311643569e-01 1.954593368339704040e-01 -4.348626328936901486e-01 4.235291623985157017e+00 4.589752981949141386e+00 -6.290175064104913893e+00 1.645292458308862171e+00 6.000702075107278155e-01 -1.452035520500345012e+00
2.000000000000000111e-01 -2.697248367964413251e+00 -1.787537268669630253e+00 -5.179149721453282229e-01 -9.161916909910598150e+00 -4.182394804714151704e+00 -2.620981474303031078e+00 8.565027547425647647e-01 4.045933102233424949e-01 2.699203104838276412e-01
2.000000000000000111e-01 1.938161009026120318e+00 -6.052537539791374988e-01 2.502133867431334036e+00 -6.966666522724863642e-01 -2.081053827712609383e+00 6.489145249222690204e+00 1.079373184858595902e+00 1.168430214982944665e-01 2.078051804633141320e+00
2.000000000000000111e-01 -4.300647117813565790e-01 1.800624665553058890e-01 -7.865414161027219908e-01 1.557592615752936838e-01 -1.320037640290333547e+00 -2.078887442801815588e+00 -3.116156579120536452e-01 -9.656805898680476119e-01 1.049679311352054611e+00
2.000000000000000111e-01 1.179065754785897191e+01 2.794211481094210026e+00 8.346111730267851136e-01 2.392832191160630728e+01 6.244161235886260819e+00 5.317339432779096819e-01 -1.178040336042603387e-01 -1.359939040977154734e-01 2.226318798930941589e-01
2.000000000000000111e-01 1.056643278464760138e+00 -1.317493212518173085e+00 -6.529472445791135726e-01 4.879046297632492646e+00 -6.248099401664613417e+00 -8.971645541080544461e+00 6.605003871932092485e-01 2.834908369412093565e-01 8.112638664168756453e-01
2.000000000000000111e-01 -8.763562415839510678e+00 2.562882747786663362e+00 5.837730088859723665e+00 -1.406799951852509167e+01 6.287959135350595474e+00 1.151650589271937442e+01 -9.524643725018940854e-01 1.203399519389974637e-01 -7.508942591848019044e-01
2.000000000000000111e-01 7.040526303888275939e-01 5.379403041593197043e-01 8.943999959227674212e-01 5.285701424402957649e+00 3.211036881617581162e+00 6.449133892213558816e-01 -8.714850382688268393e-01 -1.451128569074773278e-01 -4.430263072455225548e-01
2.000000000000000111e-01 1.451280937255795322e+00 1.094917444826321784e+01 -3.773812262268627649e+00 1.454869795652151909e+00 2.191780036219530103e+01 -5.825355829280866260e+00 6.653372657258510570e-01 -5.790713660383163264e-01 -9.607341965854655497e-01
2.000000000000000111e-01 -1.621720941155951612e-01 -6.126583739991383615e-01 -2.132622742263733384e-01 -4.798856503079028668e-01 -5.843952717397642438e-01 -7.164250384240134828e+00 -2.987053318640132127e-01 -6.339671642628654791e-01 -2.061552010098763432e+00
2.000000000000000111e-01 9.125081382902336946e-01 3.800680367536586335e+00 1.492666114548018674e+00 3.457334258356178136e+00 5.567759015779211396e+00 -9.946999661352020627e-01 -7.224952440073477700e-01 6.793649994325586805e-01 -6.342272416482459541e-01
2.000000000000000111e-01 -1.741298093112654197e-02 -1.683945651815030864e+00 -1.813308621503082030e+00 1.101604296131014349e-01 -3.201787054561109347e+00 -5.585142701900497109e+00 -7.648265045724579325e-01 -5.277428730811927204e-01 -7.285606645227563627e-01
2.000000000000000111e-01 -8.338369306317304774e-01 8.176006696443126609e-01 -2.910914703538362014e-01 2.961100022997109615e-01 2.629842999070690190e+00 -5.833170730997611741e+00 1.401336077286875259e+00 1.994418133751360456e+00 -2.493633451681860791e+00
2.000000000000000111e-01 -1.625103275140432402e+00 -4.147732976857756992e-01 -2.122950480944582274e+00 -5.043826161081730319e+00 -1.450938117235465452e-01 -5.430405498669077069e+00 -1.686947643786270434e-01 -1.112949139721709502e-01 1.785866028079163836e+00
2.000000000000000111e-01 -3.862721906138661399e-01 1.106068364826391093e-01 -2.190226476575109160e+00 -3.777460318148111895e+00 -1.650016825020270916e+00 -9.320417481186173969e-01 1.095186438311185118e+00 -2.027299091432454570e-01 -1.658432873299482635e+00
2.000000000000000111e-01 2.000058276480166375e-01 7.549581653972302631e-01 -3.760230333953073489e-01 3.258165438467481856e+00 -9.587042150468152446e-01 5.904420587992496472e+00 -6.831357477726296423e-01 -3.446388259010521038e-01 -2.665593068137567245e-01
2.000000000000000111e-01 -1.082446328032624638e+00 -3.023083626109170474e+00 -2.230650166923815902e+00 -5.292709532305524434e+00 -3.231297742134465523e+00 -1.746353265221660678e+00 -1.592421874085047095e+00 1.156823731462514049e+00 1.069107359911631194e+00
2.000000000000000111e-01 -1.030450509627100164e+00 2.276234011978481575e-01 -3.190920788408078135e-01 -8.681493036713696654e+00 4.743938810696466390e+00 -3.308027456716940318e+00 -1.223310586007041900e+00 9.809448759719592292e-01 3.204576417922734843e-01
2.000000000000000111e-01 -2.373121290254948113e-02 -2.574415739527162295e+00 -1.282112949471203134e+00 6.518004067190497075e-01 -7.567560518803250424e+00 -3.734291160760549566e+00 -2.235644314850002146e-01 -1.068210350058179214e+00 6.135394559233900424e-02
2.000000000000000111e-01 2.584223236922535527e+00 4.153334359550235888e-01 -8.876356073067210861e-01 8.487449415592607238e+00 1.948692261890200284e+00 1.276450577983127221e+00 -1.979166230203300403e+00 1.097375253062042644e+00 -9.086383778499577124e-01
2.000000000000000111e-01 1.385090377704796705e+00 7.246771678043472109e-01 -2.988779403481704455e-01 4.495978826725973931e+00 4.761136456687086849e+00 3.097601714761238245e+00 -1.411618830972717564e+00 5.578939698536565794e-01 -4.266426693507894274e-01
2.000000000000000111e-01 -5.784878658147131203e-01 -2.668419637049564974e-01 1.198553949589545198e+00 1.525090811595749551e+00 -1.932494890442479241e+00 4.155191482961484439e+00 5.830791308948009011e-01 -1.849702544535568594e-01 1.763019130122224221e+00
2.000000000000000111e-01 3.060697120211299804e+00 1.230828694643358645e+00 -2.354623569048840626e+00 2.733533162928241467e+01 6.308143952462909709e+00 -2.013143386446677852e+01 -1.720659399611626839e+00 9.798266126681859367e-01 -5.723369920806001820e-01
2.000000000000000111e-01 7.044471625735881926e-01 -1.457863112875501799e-01 2.748573764112909323e+00 1.458840807960273489e+00 4.993353515284441713e+00 3.519640755527503995e+00 -2.242880105773636057e+00 -1.565798704276393893e+00 -1.214715150843223290e-01
2.000000000000000111e-01 1.646383274255723173e+00 -1.500965546845733467e+00 2.349459409404604404e+00 2.926148575293554988e+00 -1.466128766068535150e+00 2.327392381195875881e+00 4.655558135037913756e-03 -1.120947515242226161e-01 9.164997665003927763e-01
2.000000000000000111e-01 -1.829625408637674644e+00 2.152424707888167532e-01 -1.876173511940590677e+00 -1.165750967240424041e+00 -2.293674748600495139e+00 -4.917202180263889666e+00 1.699226508802586522e-01 -6.679689897872609361e-02 -1.017354596041230852e-01
2.000000000000000111e-01 3.016521165271499161e+00 8.587277840877877155e-01 1.646571695454091877e+00 1.122136100405594838e+01 2.390447439026090137e+00 5.155731965096012281e+00 9.575996716961209243e-01 -3.800212820832296057e-01 -5.476042479688690845e-01
2.000000000000000111e-01 -1.556746729256055062e+00 -3.458271809682393894e+00 2.282657154970444136e-01 -5.245106956232674200e+00 -1.159583801874481956e+01 4.216043775323505272e-02 1.733335360229991018e+00 1.607423515250675505e+00 -1.463360001873950322e+00
2.000000000000000111e-01 -3.552062533820494750e-01 -2.930522992475756983e+00 -3.637915986402652901e+00 -2.455106296592277193e+00 -7.946979147602769800e+00 -4.365364425448478691e+00 -1.481259929826439725e+00 -5.562455566616666403e-01 6.364195616805071731e-01
2.000000000000000111e-01 1.693728223962707169e-01 -2.511893737604710131e-01 -8.299549714789645760e-01 1.509471410517349010e+00 2.515359777694386789e+00 -3.834483920427443349e-01 -1.069776904912365989e+00 9.217015482178823049e-01 5.922274772907178964e-01
2.000000000000000111e-01 6.769646253928736368e-02 2.012320025084522790e+00 2.737373522093791145e+00 -5.995860321571927498e-01 4.756110676981309737e+00 6.645456727891718707e+00 7.915148001624806584e-01 -1.015363135660433791e+00 -8.048018562985213009e-01
2.000000000000000111e-01 3.361475570603469798e+00 1.074989351045940067e+00 -2.911085571671089056e+00 1.658988967020328786e+01 5.245102374438099346e+00 -1.781739386065113351e+01 1.082903688098803552e-01 -5.069023257663189952e-01 9.891051370425618661e-01
2.000000000000000111e-01 4.876753405615145143e-01 -8.634517102197540872e-01 -2.566076916164010124e-01 1.014394330389274579e+01 -6.504231865076481434e+00 -2.314990431718897845e+00 9.536227737899083401e-01 -1.137963513142421279e+00 -4.347659099736778110e-01
2.000000000000000111e-01 1.172000886423854249e+00 6.404204895861009827e-01 3.150603701570819370e-01 1.277916576198884879e+00 -1.340143107265910238e+00 -3.358257571544924769e-01 -6.732880253705347817e-01 2.568116709601713232e-01 -1.128152052396058647e-01
2.000000000000000111e-01 -6.483940757144914802e-01 1.783928494038098389e-01 1.344314354525089905e-01 -2.912339691751474557e+00 -2.591259524095603783e-01 -6.879893627365377462e+00 2.992763546852804102e-01 -5.328473851187549570e-01 -1.297512116512353542e+00
2.000000000000000111e-01 2.191277381633446528e-02 -2.139097241793023463e-01 4.069039731005064109e-01 1.908322293147131088e+00 5.341986736637339028e+00 1.024441968946687886e+01 5.847261847852484040e-01 -9.341694633415285054e-01 1.877333420170706590e+00
2.000000000000000111e-01 1.147144604147767755e+00 -7.196411915467380016e-01 1.943577597679512436e+00 -6.632331094354853018e-01 7.449152069292113154e-01 4.278075280844033657e+00 4.795365590435126668e-01 6.818718284222321513e-01 -5.250361889456554021e-01
2.000000000000000111e-01 -8.289965446838939434e-01 2.386408452202745945e-01 2.219175627384379346e-01 5.250402891114577919e+00 -1.764384166459224579e+00 8.750500486049612725e-01 9.645143198464114498e-01 4.682952647395684509e-01 3.107797749933667864e-01
2.000000000000000111e-01 -1.364528713156602180e+00 1.184866517893997440e+00 5.391105182674629098e-02 2.877014180302152058e-01 -1.590245641484439920e+00 7.542511979566344227e-01 -7.817659407701461616e-01 1.594335185503471530e+00 1.721765692341389320e+00
2.000000000000000111e-01 3.447560360167047921e-01 -1.712523747383799810e-01 9.397761813749894166e-02 -9.142573745877744074e+00 -5.172963798849083972e+00 1.322725466656899052e+00 -1.439414282393020494e+00 1.777630996610942260e+00 -3.724604661493456925e-01
2.000000000000000111e-01 1.345552995862029144e+00 1.085560195308989284e+00 1.282492025317437889e+00 1.548005463859487341e+00 3.747051622963646800e+00 8.639624543031940718e+00 -1.938215621452891391e+00 -6.327112457936556744e-02 1.103146849808664287e+00
2.000000000000000111e-01 -1.096550349321509632e+00 -1.901240272579375556e+00 2.881715706368430219e+00 -1.336036978071777792e+00 -4.334413383598567648e+00 -1.023622052535946070e+00 -6.640342753126907693e-01 -4.956786245842724203e-01 1.591482884198499592e+00
2.000000000000000111e-01 3.364713548366584650e-01 -2.241047040770877352e+00 3.523820650287760703e+00 -8.270762377498006579e-01 -3.771182121454294656e+00 9.268198259561630792e+00 2.746750731775911558e-01 -4.907863013043615164e-01 -7.109935330655287045e-01
2.000000000000000111e-01 1.349443508746105413e+00 -3.874765960183114144e-01 1.356336563773492765e+00 1.291424021707591407e+00 -6.066904710370059739e+00 1.697183208737597937e+01 1.176877925213579978e-01 1.227415732175720919e-01 -8.556183829225534332e-01
2.000000000000000111e-01 3.808506458300976449e-01 -8.696197101637813676e-01 -1.979220894111316964e+00 2.108823207256597110e-01 4.318712972162147556e-01 -3.293237114975027247e+00 1.299762502845322132e+00 -1.351280231070889626e-01 1.318074112029440803e+00
2.000000000000000111e-01 4.908983582867861850e-01 -2.191985970580546450e+00 -1.153473679441739674e-01 -3.035500706445065644e-01 -1.030993766810560430e+01 1.971321790803277851e+00 -7.681547079383016507e-01 3.254067364212411273e-01 4.054419149060385641e-02
2.000000000000000111e-01 -5.658554080483156890e-01 9.811674696556358377e-01 8.803507065311974578e-02 -8.123624804009081934e-01 8.390237751774730413e+00 1.284928357093647389e+00 -1.180614442082631235e-02 -1.495239641433372180e+00 4.810501795975972161e-01
2.000000000000000111e-01 -3.793981662762878626e-01 -5.266669519741079553e-01 -1.339953816276833409e+00 -2.324270377544269905e+00 1.094879282135031273e+00 2.782651410265097880e+00 2.076422368118658213e+00 -8.757048250047075877e-01 -6.108924061946308104e-01
2.000000000000000111e-01 2.961354163871400935e+00 -2.257626933466357233e+00 3.294780648697102077e+00 5.922519420125982315e+00 -3.683486902522175477e+00 9.725063654876223040e+00 -8.641747394930455739e-01 8.021400794108747290e-01 -3.456058189353753418e-01
2.000000000000000111e-01 2.102993640136408438e+00 -2.251619676767374845e+00 2.450942661061816796e+00 6.823064947395780955e+00 -3.088688939146678081e+00 4.008387772156051909e+00 3.204707377370521471e-01 3.685896668600501247e-01 -1.308636580605316846e+00
2.000000000000000111e-01 5.857453374225455311e-01 7.255115275138759312e-01 -3.443840015327116699e+00 -3.397706265816502924e+00 2.075918337234208266e+00 -2.006976241079657086e+01 8.395407107930650259e-01 -1.097577593934054407e+00 -2.811400118188451258e-01
